%time,field.header.seq,field.header.stamp,field.header.frame_id,field.orientation.x,field.orientation.y,field.orientation.z,field.orientation.w,field.orientation_covariance0,field.orientation_covariance1,field.orientation_covariance2,field.orientation_covariance3,field.orientation_covariance4,field.orientation_covariance5,field.orientation_covariance6,field.orientation_covariance7,field.orientation_covariance8,field.angular_velocity.x,field.angular_velocity.y,field.angular_velocity.z,field.angular_velocity_covariance0,field.angular_velocity_covariance1,field.angular_velocity_covariance2,field.angular_velocity_covariance3,field.angular_velocity_covariance4,field.angular_velocity_covariance5,field.angular_velocity_covariance6,field.angular_velocity_covariance7,field.angular_velocity_covariance8,field.linear_acceleration.x,field.linear_acceleration.y,field.linear_acceleration.z,field.linear_acceleration_covariance0,field.linear_acceleration_covariance1,field.linear_acceleration_covariance2,field.linear_acceleration_covariance3,field.linear_acceleration_covariance4,field.linear_acceleration_covariance5,field.linear_acceleration_covariance6,field.linear_acceleration_covariance7,field.linear_acceleration_covariance8
1349442726051814451,0,1349442726054150820,auk,-0.0130946693226,0.00160347354409,0.351877892052,0.935952940907,0.0,0.0,0.0,0.0,0.0,0.0,0.0,0.0,0.0,-0.00392699081699,0.000523598775598,0.00418879020479,0.000169,0.0,0.0,0.0,0.000169,0.0,0.0,0.0,0.000169,-0.07848,-0.22563,9.85905,0.006889,0.0,0.0,0.0,0.006889,0.0,0.0,0.0,0.006889
1349442726071573512,1,1349442726074151039,auk,-0.0131453906872,0.00149337909803,0.351713894627,0.93601405163,0.0,0.0,0.0,0.0,0.0,0.0,0.0,0.0,0.0,-0.0287979326579,-0.00471238898038,-0.00575958653158,0.000169,0.0,0.0,0.0,0.000169,0.0,0.0,0.0,0.000169,-0.10791,-0.25506,9.87867,0.006889,0.0,0.0,0.0,0.006889,0.0,0.0,0.0,0.006889
1349442726091752678,2,1349442726094148874,auk,-0.0132576195625,0.00154553013178,0.351633123191,0.936042730614,0.0,0.0,0.0,0.0,0.0,0.0,0.0,0.0,0.0,-0.00890117918517,0.00418879020479,0.0175405589825,0.000169,0.0,0.0,0.0,0.000169,0.0,0.0,0.0,0.000169,-0.13734,-0.24525,9.87867,0.006889,0.0,0.0,0.0,0.006889,0.0,0.0,0.0,0.006889
1349442726111706526,3,1349442726114148855,auk,-0.0134209896356,0.00148415855096,0.351633387581,0.936040402466,0.0,0.0,0.0,0.0,0.0,0.0,0.0,0.0,0.0,-0.00235619449019,-0.00471238898038,0.0,0.000169,0.0,0.0,0.0,0.000169,0.0,0.0,0.0,0.000169,-0.11772,-0.23544,9.87867,0.006889,0.0,0.0,0.0,0.006889,0.0,0.0,0.0,0.006889
1349442726131710385,4,1349442726134148836,auk,-0.0132272008654,0.00146153197949,0.351795704805,0.935982204511,0.0,0.0,0.0,0.0,0.0,0.0,0.0,0.0,0.0,0.00759218224618,-0.00287979326579,-0.00706858347058,0.000169,0.0,0.0,0.0,0.000169,0.0,0.0,0.0,0.000169,-0.07848,-0.20601,9.89829,0.006889,0.0,0.0,0.0,0.006889,0.0,0.0,0.0,0.006889
1349442726151636787,5,1349442726154149055,auk,-0.0131967531514,0.00137754448378,0.351958273323,0.935921643043,0.0,0.0,0.0,0.0,0.0,0.0,0.0,0.0,0.0,-0.00287979326579,0.00602138591938,-0.0010471975512,0.000169,0.0,0.0,0.0,0.000169,0.0,0.0,0.0,0.000169,-0.0981,-0.1962,9.87867,0.006889,0.0,0.0,0.0,0.006889,0.0,0.0,0.0,0.006889
1349442726171365535,6,1349442726174149036,auk,-0.013145911174,0.00148879040016,0.352040603734,0.935891223298,0.0,0.0,0.0,0.0,0.0,0.0,0.0,0.0,0.0,-0.00157079632679,0.0123045712266,-0.00392699081699,0.000169,0.0,0.0,0.0,0.000169,0.0,0.0,0.0,0.000169,-0.13734,-0.1962,9.86886,0.006889,0.0,0.0,0.0,0.006889,0.0,0.0,0.0,0.006889
1349442726191249545,7,1349442726194146872,auk,-0.0130442856191,0.00171130921563,0.352205197811,0.935830335407,0.0,0.0,0.0,0.0,0.0,0.0,0.0,0.0,0.0,-0.010471975512,0.00261799387799,-0.0157079632679,0.000169,0.0,0.0,0.0,0.000169,0.0,0.0,0.0,0.000169,-0.15696,-0.1962,9.87867,0.006889,0.0,0.0,0.0,0.006889,0.0,0.0,0.0,0.006889
1349442726211218761,8,1349442726214146852,auk,-0.0129936610479,0.00182144819888,0.352369124074,0.93576912083,0.0,0.0,0.0,0.0,0.0,0.0,0.0,0.0,0.0,0.00471238898038,0.001308996939,-0.00890117918517,0.000169,0.0,0.0,0.0,0.000169,0.0,0.0,0.0,0.000169,-0.16677,-0.22563,9.86886,0.006889,0.0,0.0,0.0,0.006889,0.0,0.0,0.0,0.006889
1349442726231657809,9,1349442726234146833,auk,-0.0130247311412,0.00190084068796,0.352533187299,0.935706735594,0.0,0.0,0.0,0.0,0.0,0.0,0.0,0.0,0.0,-0.00785398163397,0.00863937979737,0.00575958653158,0.000169,0.0,0.0,0.0,0.000169,0.0,0.0,0.0,0.000169,-0.13734,-0.21582,9.85905,0.006889,0.0,0.0,0.0,0.006889,0.0,0.0,0.0,0.006889
1349442726251825452,10,1349442726254147053,auk,-0.0129741788243,0.0020110010027,0.352697062645,0.935645450243,0.0,0.0,0.0,0.0,0.0,0.0,0.0,0.0,0.0,-0.00602138591938,0.0,0.00654498469498,0.000169,0.0,0.0,0.0,0.000169,0.0,0.0,0.0,0.000169,-0.15696,-0.18639,9.85905,0.006889,0.0,0.0,0.0,0.006889,0.0,0.0,0.0,0.006889
1349442726271405016,11,1349442726274144888,auk,-0.0129236653146,0.00212117911564,0.352860907712,0.935584127314,0.0,0.0,0.0,0.0,0.0,0.0,0.0,0.0,0.0,-0.00157079632679,-0.000785398163397,0.00497418836818,0.000169,0.0,0.0,0.0,0.000169,0.0,0.0,0.0,0.000169,-0.13734,-0.20601,9.86886,0.006889,0.0,0.0,0.0,0.006889,0.0,0.0,0.0,0.006889
1349442726291279032,12,1349442726294144869,auk,-0.0128108776901,0.00207255822182,0.352696706287,0.935647700414,0.0,0.0,0.0,0.0,0.0,0.0,0.0,0.0,0.0,-0.010471975512,0.0170169602069,-0.00261799387799,0.000169,0.0,0.0,0.0,0.000169,0.0,0.0,0.0,0.000169,-0.08829,-0.20601,9.87867,0.006889,0.0,0.0,0.0,0.006889,0.0,0.0,0.0,0.006889
1349442726311344980,13,1349442726314144850,auk,-0.0127797632471,0.00199313359437,0.352532677579,0.935710113395,0.0,0.0,0.0,0.0,0.0,0.0,0.0,0.0,0.0,0.0102101761242,0.010471975512,0.00890117918517,0.000169,0.0,0.0,0.0,0.000169,0.0,0.0,0.0,0.000169,-0.11772,-0.21582,9.89829,0.006889,0.0,0.0,0.0,0.006889,0.0,0.0,0.0,0.006889
1349442726331708675,14,1349442726334144831,auk,-0.0128101534503,0.00207702993537,0.352370082146,0.935770757784,0.0,0.0,0.0,0.0,0.0,0.0,0.0,0.0,0.0,-0.00523598775598,0.00445058959259,-0.00549778714378,0.000169,0.0,0.0,0.0,0.000169,0.0,0.0,0.0,0.000169,-0.13734,-0.21582,9.87867,0.006889,0.0,0.0,0.0,0.006889,0.0,0.0,0.0,0.006889
1349442726353401546,15,1349442726354145050,auk,-0.0127588479172,0.002191672819,0.352207283682,0.935832483776,0.0,0.0,0.0,0.0,0.0,0.0,0.0,0.0,0.0,0.00314159265359,-0.00445058959259,-0.00366519142919,0.000169,0.0,0.0,0.0,0.000169,0.0,0.0,0.0,0.000169,-0.13734,-0.17658,9.82962,0.006889,0.0,0.0,0.0,0.006889,0.0,0.0,0.0,0.006889
1349442726371430874,16,1349442726374142885,auk,-0.0126769870883,0.00222351497865,0.352125422853,0.935864325936,0.0,0.0,0.0,0.0,0.0,0.0,0.0,0.0,0.0,0.0136135681656,-0.00916297857297,-0.00916297857297,0.000169,0.0,0.0,0.0,0.000169,0.0,0.0,0.0,0.000169,-0.11772,-0.20601,9.85905,0.006889,0.0,0.0,0.0,0.006889,0.0,0.0,0.0,0.006889
1349442726391591804,17,1349442726394142866,auk,-0.0127582737014,0.00219501300243,0.351962271244,0.935924659356,0.0,0.0,0.0,0.0,0.0,0.0,0.0,0.0,0.0,0.00314159265359,0.001308996939,0.0112573736754,0.000169,0.0,0.0,0.0,0.000169,0.0,0.0,0.0,0.000169,-0.13734,-0.22563,9.88848,0.006889,0.0,0.0,0.0,0.006889,0.0,0.0,0.0,0.006889
1349442726411574708,18,1349442726414142847,auk,-0.0128702587274,0.00224822406375,0.351799823953,0.935984073473,0.0,0.0,0.0,0.0,0.0,0.0,0.0,0.0,0.0,-0.00863937979737,-0.00471238898038,0.000523598775598,0.000169,0.0,0.0,0.0,0.000169,0.0,0.0,0.0,0.000169,-0.12753,-0.22563,9.9081,0.006889,0.0,0.0,0.0,0.006889,0.0,0.0,0.0,0.006889
1349442726431771616,19,1349442726434142828,auk,-0.0127268326257,0.00211777630114,0.351634837435,0.936048334146,0.0,0.0,0.0,0.0,0.0,0.0,0.0,0.0,0.0,-0.00366519142919,0.0,0.00366519142919,0.000169,0.0,0.0,0.0,0.000169,0.0,0.0,0.0,0.000169,-0.0981,-0.1962,9.87867,0.006889,0.0,0.0,0.0,0.006889,0.0,0.0,0.0,0.006889
1349442726451834073,20,1349442726454140902,auk,-0.0127264628101,0.0021199975202,0.351471460827,0.936109691745,0.0,0.0,0.0,0.0,0.0,0.0,0.0,0.0,0.0,-0.00157079632679,0.001308996939,0.000523598775598,0.000169,0.0,0.0,0.0,0.000169,0.0,0.0,0.0,0.000169,-0.12753,-0.21582,9.87867,0.006889,0.0,0.0,0.0,0.006889,0.0,0.0,0.0,0.006889
1349442726471498773,21,1349442726474140882,auk,-0.0128384343927,0.00217326193865,0.351308977842,0.936169030476,0.0,0.0,0.0,0.0,0.0,0.0,0.0,0.0,0.0,-0.00183259571459,-0.01308996939,0.00759218224618,0.000169,0.0,0.0,0.0,0.000169,0.0,0.0,0.0,0.000169,-0.15696,-0.24525,9.84924,0.006889,0.0,0.0,0.0,0.006889,0.0,0.0,0.0,0.006889
1349442726491864347,22,1349442726494140863,auk,-0.0129503874177,0.00222656534691,0.351146493763,0.936228321399,0.0,0.0,0.0,0.0,0.0,0.0,0.0,0.0,0.0,-0.00602138591938,-0.0196349540849,0.0136135681656,0.000169,0.0,0.0,0.0,0.000169,0.0,0.0,0.0,0.000169,-0.13734,-0.21582,9.84924,0.006889,0.0,0.0,0.0,0.006889,0.0,0.0,0.0,0.006889
1349442726511569976,23,1349442726514140844,auk,-0.0130629183023,0.00227648795254,0.351229116085,0.936195645035,0.0,0.0,0.0,0.0,0.0,0.0,0.0,0.0,0.0,0.00785398163397,0.00706858347058,0.00706858347058,0.000169,0.0,0.0,0.0,0.000169,0.0,0.0,0.0,0.000169,-0.12753,-0.22563,9.85905,0.006889,0.0,0.0,0.0,0.006889,0.0,0.0,0.0,0.006889
1349442726531611332,24,1349442726534140825,auk,-0.013145008507,0.00224354321878,0.351392704823,0.936133186177,0.0,0.0,0.0,0.0,0.0,0.0,0.0,0.0,0.0,-0.01308996939,-0.00706858347058,-0.00575958653158,0.000169,0.0,0.0,0.0,0.000169,0.0,0.0,0.0,0.000169,-0.12753,-0.23544,9.84924,0.006889,0.0,0.0,0.0,0.006889,0.0,0.0,0.0,0.006889
1349442726551614427,25,1349442726554138899,auk,-0.0131964211267,0.00212887751244,0.351555536379,0.936071592984,0.0,0.0,0.0,0.0,0.0,0.0,0.0,0.0,0.0,0.010471975512,0.00942477796077,0.000261799387799,0.000169,0.0,0.0,0.0,0.000169,0.0,0.0,0.0,0.000169,-0.12753,-0.21582,9.87867,0.006889,0.0,0.0,0.0,0.006889,0.0,0.0,0.0,0.006889
1349442726571586371,26,1349442726574138880,auk,-0.0131967924849,0.00212657427005,0.351718906337,0.936010220711,0.0,0.0,0.0,0.0,0.0,0.0,0.0,0.0,0.0,-0.00916297857297,-0.00157079632679,0.00602138591938,0.000169,0.0,0.0,0.0,0.000169,0.0,0.0,0.0,0.000169,-0.11772,-0.24525,9.88848,0.006889,0.0,0.0,0.0,0.006889,0.0,0.0,0.0,0.006889
1349442726591456551,27,1349442726594138861,auk,-0.0132481454164,0.00201188182213,0.351881696723,0.93594856188,0.0,0.0,0.0,0.0,0.0,0.0,0.0,0.0,0.0,0.00209439510239,-0.00314159265359,-0.0102101761242,0.000169,0.0,0.0,0.0,0.000169,0.0,0.0,0.0,0.000169,-0.0981,-0.27468,9.89829,0.006889,0.0,0.0,0.0,0.006889,0.0,0.0,0.0,0.006889
1349442726611457684,28,1349442726614138842,auk,-0.0132994586674,0.00189717161786,0.352044456684,0.935886865843,0.0,0.0,0.0,0.0,0.0,0.0,0.0,0.0,0.0,-0.00706858347058,0.0,0.00261799387799,0.000169,0.0,0.0,0.0,0.000169,0.0,0.0,0.0,0.000169,-0.08829,-0.23544,9.87867,0.006889,0.0,0.0,0.0,0.006889,0.0,0.0,0.0,0.006889
1349442726631768359,29,1349442726634136915,auk,-0.0133502651315,0.00178593882343,0.351962175695,0.935917308165,0.0,0.0,0.0,0.0,0.0,0.0,0.0,0.0,0.0,-0.0010471975512,-0.00916297857297,0.000261799387799,0.000169,0.0,0.0,0.0,0.000169,0.0,0.0,0.0,0.000169,-0.07848,-0.23544,9.87867,0.006889,0.0,0.0,0.0,0.006889,0.0,0.0,0.0,0.006889
1349442726651585947,30,1349442726654136896,auk,-0.0134009448638,0.00167588447898,0.35179819427,0.935978438104,0.0,0.0,0.0,0.0,0.0,0.0,0.0,0.0,0.0,0.0141371669412,-0.00785398163397,-0.0112573736754,0.000169,0.0,0.0,0.0,0.000169,0.0,0.0,0.0,0.000169,-0.0981,-0.23544,9.89829,0.006889,0.0,0.0,0.0,0.006889,0.0,0.0,0.0,0.006889
1349442726671508025,31,1349442726674136877,auk,-0.0132576195625,0.00154553013178,0.351633123191,0.936042730614,0.0,0.0,0.0,0.0,0.0,0.0,0.0,0.0,0.0,-0.00602138591938,0.0,0.00445058959259,0.000169,0.0,0.0,0.0,0.000169,0.0,0.0,0.0,0.000169,-0.0981,-0.20601,9.9081,0.006889,0.0,0.0,0.0,0.006889,0.0,0.0,0.0,0.006889
1349442726691890571,32,1349442726694136858,auk,-0.013144999271,0.00149682050205,0.351468834671,0.936106098035,0.0,0.0,0.0,0.0,0.0,0.0,0.0,0.0,0.0,-0.00340339204139,-0.00314159265359,-0.00418879020479,0.000169,0.0,0.0,0.0,0.000169,0.0,0.0,0.0,0.000169,-0.08829,-0.21582,9.91791,0.006889,0.0,0.0,0.0,0.006889,0.0,0.0,0.0,0.006889
1349442726711280648,33,1349442726714136839,auk,-0.0130630417566,0.0015297718924,0.351305315823,0.93616857019,0.0,0.0,0.0,0.0,0.0,0.0,0.0,0.0,0.0,0.000785398163397,0.00549778714378,-0.00837758040957,0.000169,0.0,0.0,0.0,0.000169,0.0,0.0,0.0,0.000169,-0.12753,-0.21582,9.89829,0.006889,0.0,0.0,0.0,0.006889,0.0,0.0,0.0,0.006889
1349442726731749798,34,1349442726734134912,auk,-0.0129300029314,0.00167504351331,0.351142400877,0.936231287429,0.0,0.0,0.0,0.0,0.0,0.0,0.0,0.0,0.0,-0.0112573736754,-0.00628318530718,0.00183259571459,0.000169,0.0,0.0,0.0,0.000169,0.0,0.0,0.0,0.000169,-0.15696,-0.20601,9.84924,0.006889,0.0,0.0,0.0,0.006889,0.0,0.0,0.0,0.006889
1349442726751637576,35,1349442726754134893,auk,-0.012878620616,0.0017896401961,0.350979590364,0.936292831045,0.0,0.0,0.0,0.0,0.0,0.0,0.0,0.0,0.0,0.00733038285838,-0.0115191730632,-0.001308996939,0.000169,0.0,0.0,0.0,0.000169,0.0,0.0,0.0,0.000169,-0.13734,-0.1962,9.87867,0.006889,0.0,0.0,0.0,0.006889,0.0,0.0,0.0,0.006889
1349442726771510130,36,1349442726774134874,auk,-0.0127967547066,0.00182138567099,0.350897724454,0.93632457652,0.0,0.0,0.0,0.0,0.0,0.0,0.0,0.0,0.0,0.0128281700022,0.00235619449019,0.001308996939,0.000169,0.0,0.0,0.0,0.000169,0.0,0.0,0.0,0.000169,-0.10791,-0.21582,9.89829,0.006889,0.0,0.0,0.0,0.006889,0.0,0.0,0.0,0.006889
1349442726791295729,37,1349442726794134855,auk,-0.0126541188714,0.00168637050127,0.351059513029,0.936266120151,0.0,0.0,0.0,0.0,0.0,0.0,0.0,0.0,0.0,0.0,-0.00209439510239,0.0227765467385,0.000169,0.0,0.0,0.0,0.000169,0.0,0.0,0.0,0.000169,-0.10791,-0.21582,9.9081,0.006889,0.0,0.0,0.0,0.006889,0.0,0.0,0.0,0.006889
1349442726811279545,38,1349442726814132929,auk,-0.0125420746481,0.00163310838116,0.351222039173,0.936206765902,0.0,0.0,0.0,0.0,0.0,0.0,0.0,0.0,0.0,-0.00497418836818,-0.0102101761242,0.001308996939,0.000169,0.0,0.0,0.0,0.000169,0.0,0.0,0.0,0.000169,-0.0981,-0.17658,9.85905,0.006889,0.0,0.0,0.0,0.006889,0.0,0.0,0.0,0.006889
1349442726831766438,39,1349442726834132910,auk,-0.0123481769763,0.00161162694217,0.351302729289,0.936179105502,0.0,0.0,0.0,0.0,0.0,0.0,0.0,0.0,0.0,-0.00471238898038,0.00261799387799,0.00445058959259,0.000169,0.0,0.0,0.0,0.000169,0.0,0.0,0.0,0.000169,-0.07848,-0.16677,9.82962,0.006889,0.0,0.0,0.0,0.006889,0.0,0.0,0.0,0.006889
1349442726851843489,40,1349442726854132891,auk,-0.01223528784,0.00156485385002,0.350975063748,0.936303558463,0.0,0.0,0.0,0.0,0.0,0.0,0.0,0.0,0.0,0.00994837673637,-0.00733038285838,-0.0109955742876,0.000169,0.0,0.0,0.0,0.000169,0.0,0.0,0.0,0.000169,-0.08829,-0.17658,9.85905,0.006889,0.0,0.0,0.0,0.006889,0.0,0.0,0.0,0.006889
1349442726871524463,41,1349442726874132872,auk,-0.0122350145351,0.00156698928675,0.350811642605,0.936364800907,0.0,0.0,0.0,0.0,0.0,0.0,0.0,0.0,0.0,-0.00968657734857,0.00968657734857,-0.0217293491873,0.000169,0.0,0.0,0.0,0.000169,0.0,0.0,0.0,0.000169,-0.11772,-0.21582,9.87867,0.006889,0.0,0.0,0.0,0.006889,0.0,0.0,0.0,0.006889
1349442726891998924,42,1349442726894132853,auk,-0.0123470488393,0.00162024720252,0.350649067421,0.936424132912,0.0,0.0,0.0,0.0,0.0,0.0,0.0,0.0,0.0,0.00340339204139,-0.000261799387799,0.00549778714378,0.000169,0.0,0.0,0.0,0.000169,0.0,0.0,0.0,0.000169,-0.13734,-0.20601,9.87867,0.006889,0.0,0.0,0.0,0.006889,0.0,0.0,0.0,0.006889
1349442726911550059,43,1349442726914130926,auk,-0.0122651862605,0.00165191744574,0.350567204842,0.936455803156,0.0,0.0,0.0,0.0,0.0,0.0,0.0,0.0,0.0,0.000261799387799,0.00209439510239,-0.001308996939,0.000169,0.0,0.0,0.0,0.000169,0.0,0.0,0.0,0.000169,-0.0981,-0.17658,9.89829,0.006889,0.0,0.0,0.0,0.006889,0.0,0.0,0.0,0.006889
1349442726931858647,44,1349442726934130907,auk,-0.0120710187713,0.00163243112455,0.350484488688,0.936489321276,0.0,0.0,0.0,0.0,0.0,0.0,0.0,0.0,0.0,-0.00209439510239,-0.00418879020479,0.00366519142919,0.000169,0.0,0.0,0.0,0.000169,0.0,0.0,0.0,0.000169,-0.07848,-0.20601,9.87867,0.006889,0.0,0.0,0.0,0.006889,0.0,0.0,0.0,0.006889
1349442726951629790,45,1349442726954130888,auk,-0.0122036313063,0.00149166220125,0.350320598207,0.936549157705,0.0,0.0,0.0,0.0,0.0,0.0,0.0,0.0,0.0,0.0149225651046,0.00340339204139,-0.00314159265359,0.000169,0.0,0.0,0.0,0.000169,0.0,0.0,0.0,0.000169,-0.10791,-0.21582,9.86886,0.006889,0.0,0.0,0.0,0.006889,0.0,0.0,0.0,0.006889
1349442726971233793,46,1349442726974130869,auk,-0.0122341923844,0.00157339531029,0.350321315075,0.93654835709,0.0,0.0,0.0,0.0,0.0,0.0,0.0,0.0,0.0,-0.00287979326579,-0.00916297857297,0.0146607657168,0.000169,0.0,0.0,0.0,0.000169,0.0,0.0,0.0,0.000169,-0.14715,-0.22563,9.88848,0.006889,0.0,0.0,0.0,0.006889,0.0,0.0,0.0,0.006889
1349442726991194487,47,1349442726994128942,auk,-0.012458479656,0.00167789305339,0.350159575412,0.936605702901,0.0,0.0,0.0,0.0,0.0,0.0,0.0,0.0,0.0,0.00366519142919,-0.0010471975512,0.000523598775598,0.000169,0.0,0.0,0.0,0.000169,0.0,0.0,0.0,0.000169,-0.15696,-0.25506,9.88848,0.006889,0.0,0.0,0.0,0.006889,0.0,0.0,0.0,0.006889
1349442727011391181,48,1349442727014128923,auk,-0.0125704582192,0.00173126806018,0.349996977379,0.936664882504,0.0,0.0,0.0,0.0,0.0,0.0,0.0,0.0,0.0,-0.00916297857297,-0.001308996939,0.00287979326579,0.000169,0.0,0.0,0.0,0.000169,0.0,0.0,0.0,0.000169,-0.13734,-0.27468,9.87867,0.006889,0.0,0.0,0.0,0.006889,0.0,0.0,0.0,0.006889
1349442727031887290,49,1349442727034128904,auk,-0.0126824181903,0.00178468205071,0.349834378294,0.936724014287,0.0,0.0,0.0,0.0,0.0,0.0,0.0,0.0,0.0,-0.00418879020479,-0.00392699081699,0.000261799387799,0.000169,0.0,0.0,0.0,0.000169,0.0,0.0,0.0,0.000169,-0.13734,-0.28449,9.87867,0.006889,0.0,0.0,0.0,0.006889,0.0,0.0,0.0,0.006889
1349442727051692514,50,1349442727054128885,auk,-0.0128761092539,0.00180762039239,0.349671937249,0.936781978167,0.0,0.0,0.0,0.0,0.0,0.0,0.0,0.0,0.0,0.0109955742876,-0.00654498469498,0.00418879020479,0.000169,0.0,0.0,0.0,0.000169,0.0,0.0,0.0,0.000169,-0.13734,-0.23544,9.88848,0.006889,0.0,0.0,0.0,0.006889,0.0,0.0,0.0,0.006889
1349442727071509819,51,1349442727074128866,auk,-0.0129062823015,0.00189162695706,0.349509177031,0.936842134405,0.0,0.0,0.0,0.0,0.0,0.0,0.0,0.0,0.0,-0.000261799387799,0.0,-0.0125663706144,0.000169,0.0,0.0,0.0,0.000169,0.0,0.0,0.0,0.000169,-0.14715,-0.22563,9.88848,0.006889,0.0,0.0,0.0,0.006889,0.0,0.0,0.0,0.006889
1349442727091309038,52,1349442727094126940,auk,-0.0130180166179,0.00194629390357,0.349264813505,0.936931605418,0.0,0.0,0.0,0.0,0.0,0.0,0.0,0.0,0.0,-0.00575958653158,0.0120427718388,0.00287979326579,0.000169,0.0,0.0,0.0,0.000169,0.0,0.0,0.0,0.000169,-0.11772,-0.26487,9.9081,0.006889,0.0,0.0,0.0,0.006889,0.0,0.0,0.0,0.006889
1349442727111404181,53,1349442727114126921,auk,-0.0130994447028,0.00191810110502,0.349101451488,0.936991409782,0.0,0.0,0.0,0.0,0.0,0.0,0.0,0.0,0.0,0.00837758040957,0.00916297857297,-0.00261799387799,0.000169,0.0,0.0,0.0,0.000169,0.0,0.0,0.0,0.000169,-0.11772,-0.26487,9.9081,0.006889,0.0,0.0,0.0,0.006889,0.0,0.0,0.0,0.006889
1349442727131707385,54,1349442727134126902,auk,-0.0131808829232,0.00188993677582,0.348938076577,0.937051178527,0.0,0.0,0.0,0.0,0.0,0.0,0.0,0.0,0.0,0.001308996939,-0.00261799387799,0.00785398163397,0.000169,0.0,0.0,0.0,0.000169,0.0,0.0,0.0,0.000169,-0.13734,-0.21582,9.89829,0.006889,0.0,0.0,0.0,0.006889,0.0,0.0,0.0,0.006889
1349442727151634203,55,1349442727154124975,auk,-0.0130987743612,0.00192267355688,0.348774358523,0.93711321209,0.0,0.0,0.0,0.0,0.0,0.0,0.0,0.0,0.0,0.00628318530718,0.00968657734857,-0.00261799387799,0.000169,0.0,0.0,0.0,0.000169,0.0,0.0,0.0,0.000169,-0.0981,-0.1962,9.87867,0.006889,0.0,0.0,0.0,0.006889,0.0,0.0,0.0,0.006889
1349442727171653216,56,1349442727174124956,auk,-0.0128742092585,0.00182110322887,0.348690749906,0.937147640049,0.0,0.0,0.0,0.0,0.0,0.0,0.0,0.0,0.0,-0.00261799387799,-0.000261799387799,-0.00261799387799,0.000169,0.0,0.0,0.0,0.000169,0.0,0.0,0.0,0.000169,-0.10791,-0.21582,9.85905,0.006889,0.0,0.0,0.0,0.006889,0.0,0.0,0.0,0.006889
1349442727191628922,57,1349442727194123030,auk,-0.0129860810631,0.00187472653811,0.348528091709,0.93720649613,0.0,0.0,0.0,0.0,0.0,0.0,0.0,0.0,0.0,-0.00261799387799,0.00863937979737,-0.0120427718388,0.000169,0.0,0.0,0.0,0.000169,0.0,0.0,0.0,0.000169,-0.11772,-0.24525,9.87867,0.006889,0.0,0.0,0.0,0.006889,0.0,0.0,0.0,0.006889
1349442727211370801,58,1349442727214123011,auk,-0.0130371569448,0.00176479611857,0.348363915752,0.937267037847,0.0,0.0,0.0,0.0,0.0,0.0,0.0,0.0,0.0,-0.00497418836818,0.0146607657168,0.0,0.000169,0.0,0.0,0.0,0.000169,0.0,0.0,0.0,0.000169,-0.10791,-0.23544,9.88848,0.006889,0.0,0.0,0.0,0.006889,0.0,0.0,0.0,0.006889
1349442727231763686,59,1349442727234122992,auk,-0.0130064742363,0.00168526984494,0.348199563957,0.937328680429,0.0,0.0,0.0,0.0,0.0,0.0,0.0,0.0,0.0,0.00314159265359,-0.00157079632679,-0.00575958653158,0.000169,0.0,0.0,0.0,0.000169,0.0,0.0,0.0,0.000169,-0.0981,-0.21582,9.87867,0.006889,0.0,0.0,0.0,0.006889,0.0,0.0,0.0,0.006889
1349442727251818740,60,1349442727254120827,auk,-0.0129454591716,0.00152392591937,0.348034430622,0.937391128525,0.0,0.0,0.0,0.0,0.0,0.0,0.0,0.0,0.0,0.00602138591938,-0.001308996939,-0.00287979326579,0.000169,0.0,0.0,0.0,0.000169,0.0,0.0,0.0,0.000169,-0.08829,-0.23544,9.88848,0.006889,0.0,0.0,0.0,0.006889,0.0,0.0,0.0,0.006889
1349442727271813095,61,1349442727274121046,auk,-0.0129148467639,0.00144437301067,0.347870048928,0.937452691915,0.0,0.0,0.0,0.0,0.0,0.0,0.0,0.0,0.0,-0.000523598775598,-0.0162315620435,0.00340339204139,0.000169,0.0,0.0,0.0,0.000169,0.0,0.0,0.0,0.000169,-0.10791,-0.20601,9.9081,0.006889,0.0,0.0,0.0,0.006889,0.0,0.0,0.0,0.006889
1349442727291545470,62,1349442727294118881,auk,-0.0128631129786,0.00155878781549,0.347707063488,0.937513684436,0.0,0.0,0.0,0.0,0.0,0.0,0.0,0.0,0.0,0.0167551608191,-0.0109955742876,-0.010471975512,0.000169,0.0,0.0,0.0,0.000169,0.0,0.0,0.0,0.000169,-0.13734,-0.1962,9.87867,0.006889,0.0,0.0,0.0,0.006889,0.0,0.0,0.0,0.006889
1349442727311497084,63,1349442727314118862,auk,-0.0127295207289,0.00170351364496,0.347543900444,0.937575754063,0.0,0.0,0.0,0.0,0.0,0.0,0.0,0.0,0.0,-0.00418879020479,-0.00157079632679,-0.0010471975512,0.000169,0.0,0.0,0.0,0.000169,0.0,0.0,0.0,0.000169,-0.14715,-0.21582,9.86886,0.006889,0.0,0.0,0.0,0.006889,0.0,0.0,0.0,0.006889
1349442727331791274,64,1349442727334118843,auk,-0.012677702447,0.00181787838996,0.347380844498,0.937636667401,0.0,0.0,0.0,0.0,0.0,0.0,0.0,0.0,0.0,-0.00445058959259,-0.010471975512,-0.00261799387799,0.000169,0.0,0.0,0.0,0.000169,0.0,0.0,0.0,0.000169,-0.14715,-0.1962,9.86886,0.006889,0.0,0.0,0.0,0.006889,0.0,0.0,0.0,0.006889
1349442727351836972,65,1349442727354116917,auk,-0.0126258445872,0.0019322251962,0.347217758304,0.937697543386,0.0,0.0,0.0,0.0,0.0,0.0,0.0,0.0,0.0,-0.00183259571459,0.00418879020479,0.00942477796077,0.000169,0.0,0.0,0.0,0.000169,0.0,0.0,0.0,0.000169,-0.14715,-0.21582,9.83943,0.006889,0.0,0.0,0.0,0.006889,0.0,0.0,0.0,0.006889
1349442727371395718,66,1349442727374116898,auk,-0.0126860566749,0.00209810681482,0.34705554173,0.937756425128,0.0,0.0,0.0,0.0,0.0,0.0,0.0,0.0,0.0,-0.0138753675534,-0.0136135681656,0.00837758040957,0.000169,0.0,0.0,0.0,0.000169,0.0,0.0,0.0,0.000169,-0.12753,-0.22563,9.83943,0.006889,0.0,0.0,0.0,0.006889,0.0,0.0,0.0,0.006889
1349442727391512721,67,1349442727394114971,auk,-0.0127376166771,0.00198598155723,0.347054993778,0.937756173156,0.0,0.0,0.0,0.0,0.0,0.0,0.0,0.0,0.0,-0.00340339204139,-0.00890117918517,-0.00549778714378,0.000169,0.0,0.0,0.0,0.000169,0.0,0.0,0.0,0.000169,-0.10791,-0.20601,9.84924,0.006889,0.0,0.0,0.0,0.006889,0.0,0.0,0.0,0.006889
1349442727411424028,68,1349442727414114952,auk,-0.0126256759207,0.00193332700164,0.347135927435,0.937727840281,0.0,0.0,0.0,0.0,0.0,0.0,0.0,0.0,0.0,0.00497418836818,-0.00471238898038,0.00157079632679,0.000169,0.0,0.0,0.0,0.000169,0.0,0.0,0.0,0.000169,-0.10791,-0.1962,9.82962,0.006889,0.0,0.0,0.0,0.006889,0.0,0.0,0.0,0.006889
1349442727431619397,69,1349442727434114933,auk,-0.0125746607719,0.00204216478979,0.34738196015,0.937637179954,0.0,0.0,0.0,0.0,0.0,0.0,0.0,0.0,0.0,-0.0125663706144,0.00680678408278,-0.00811578102177,0.000169,0.0,0.0,0.0,0.000169,0.0,0.0,0.0,0.000169,-0.15696,-0.20601,9.84924,0.006889,0.0,0.0,0.0,0.006889,0.0,0.0,0.0,0.006889
1349442727451752318,70,1349442727454113007,auk,-0.0126869709391,0.00209257127882,0.34746468211,0.937604904317,0.0,0.0,0.0,0.0,0.0,0.0,0.0,0.0,0.0,-0.010471975512,-0.00157079632679,0.00811578102177,0.000169,0.0,0.0,0.0,0.000169,0.0,0.0,0.0,0.000169,-0.12753,-0.24525,9.89829,0.006889,0.0,0.0,0.0,0.006889,0.0,0.0,0.0,0.006889
1349442727471529532,71,1349442727474112988,auk,-0.0127383091394,0.00198153516933,0.347382311284,0.937634970981,0.0,0.0,0.0,0.0,0.0,0.0,0.0,0.0,0.0,0.00340339204139,0.00157079632679,-0.00340339204139,0.000169,0.0,0.0,0.0,0.000169,0.0,0.0,0.0,0.000169,-0.08829,-0.25506,9.88848,0.006889,0.0,0.0,0.0,0.006889,0.0,0.0,0.0,0.006889
1349442727491794886,72,1349442727494112968,auk,-0.0127895034893,0.00187162423604,0.347218090253,0.937695325479,0.0,0.0,0.0,0.0,0.0,0.0,0.0,0.0,0.0,-0.0123045712266,0.0170169602069,-0.00916297857297,0.000169,0.0,0.0,0.0,0.000169,0.0,0.0,0.0,0.000169,-0.0981,-0.24525,9.86886,0.006889,0.0,0.0,0.0,0.006889,0.0,0.0,0.0,0.006889
1349442727511512316,73,1349442727514111042,auk,-0.0128407365455,0.00176173133749,0.347053839166,0.937755642216,0.0,0.0,0.0,0.0,0.0,0.0,0.0,0.0,0.0,-0.00837758040957,-0.0109955742876,0.00602138591938,0.000169,0.0,0.0,0.0,0.000169,0.0,0.0,0.0,0.000169,-0.11772,-0.21582,9.85905,0.006889,0.0,0.0,0.0,0.006889,0.0,0.0,0.0,0.006889
1349442727531786188,74,1349442727534111023,auk,-0.0128710112269,0.00184357017777,0.34705458846,0.937754792548,0.0,0.0,0.0,0.0,0.0,0.0,0.0,0.0,0.0,-0.0149225651046,-0.00392699081699,0.00340339204139,0.000169,0.0,0.0,0.0,0.000169,0.0,0.0,0.0,0.000169,-0.12753,-0.22563,9.84924,0.006889,0.0,0.0,0.0,0.006889,0.0,0.0,0.0,0.006889
1349442727557348779,75,1349442727554108858,auk,-0.012983285561,0.00189398970712,0.347137334862,0.937722516443,0.0,0.0,0.0,0.0,0.0,0.0,0.0,0.0,0.0,-0.001308996939,0.00445058959259,-0.0175405589825,0.000169,0.0,0.0,0.0,0.000169,0.0,0.0,0.0,0.000169,-0.12753,-0.23544,9.82962,0.006889,0.0,0.0,0.0,0.006889,0.0,0.0,0.0,0.006889
1349442727571475635,76,1349442727574108839,auk,-0.012953319994,0.00180989283535,0.34730023946,0.937662774914,0.0,0.0,0.0,0.0,0.0,0.0,0.0,0.0,0.0,0.000523598775598,0.00235619449019,-0.00994837673637,0.000169,0.0,0.0,0.0,0.000169,0.0,0.0,0.0,0.000169,-0.06867,-0.20601,9.84924,0.006889,0.0,0.0,0.0,0.006889,0.0,0.0,0.0,0.006889
1349442727591449453,77,1349442727594108820,auk,-0.0129233253695,0.00172580646996,0.347463131133,0.937602997946,0.0,0.0,0.0,0.0,0.0,0.0,0.0,0.0,0.0,0.00942477796077,0.000785398163397,0.011780972451,0.000169,0.0,0.0,0.0,0.000169,0.0,0.0,0.0,0.000169,-0.07848,-0.21582,9.86886,0.006889,0.0,0.0,0.0,0.006889,0.0,0.0,0.0,0.006889
1349442727611453872,78,1349442727614106894,auk,-0.0128109011221,0.00167653865521,0.347298579407,0.937665594321,0.0,0.0,0.0,0.0,0.0,0.0,0.0,0.0,0.0,-0.00418879020479,0.000261799387799,0.00340339204139,0.000169,0.0,0.0,0.0,0.000169,0.0,0.0,0.0,0.000169,-0.11772,-0.22563,9.85905,0.006889,0.0,0.0,0.0,0.006889,0.0,0.0,0.0,0.006889
1349442727631897386,79,1349442727634106874,auk,-0.012922722162,0.00173031745628,0.347135824783,0.937724228335,0.0,0.0,0.0,0.0,0.0,0.0,0.0,0.0,0.0,0.00235619449019,0.00628318530718,-0.00549778714378,0.000169,0.0,0.0,0.0,0.000169,0.0,0.0,0.0,0.000169,-0.14715,-0.23544,9.86886,0.006889,0.0,0.0,0.0,0.006889,0.0,0.0,0.0,0.006889
1349442727651568026,80,1349442727654104948,auk,-0.0130348356633,0.00178186020026,0.347136737963,0.937722242026,0.0,0.0,0.0,0.0,0.0,0.0,0.0,0.0,0.0,0.00994837673637,0.00314159265359,-0.00366519142919,0.000169,0.0,0.0,0.0,0.000169,0.0,0.0,0.0,0.000169,-0.16677,-0.24525,9.85905,0.006889,0.0,0.0,0.0,0.006889,0.0,0.0,0.0,0.006889
1349442727671592556,81,1349442727674104929,auk,-0.0131466286269,0.00183569733157,0.346973991796,0.937780808818,0.0,0.0,0.0,0.0,0.0,0.0,0.0,0.0,0.0,-0.0204203522483,-0.00706858347058,-0.0010471975512,0.000169,0.0,0.0,0.0,0.000169,0.0,0.0,0.0,0.000169,-0.16677,-0.22563,9.84924,0.006889,0.0,0.0,0.0,0.006889,0.0,0.0,0.0,0.006889
1349442727691337717,82,1349442727694104910,auk,-0.013095058955,0.00194781783953,0.346974588648,0.937781083339,0.0,0.0,0.0,0.0,0.0,0.0,0.0,0.0,0.0,0.00209439510239,-0.000261799387799,0.00654498469498,0.000169,0.0,0.0,0.0,0.000169,0.0,0.0,0.0,0.000169,-0.13734,-0.21582,9.88848,0.006889,0.0,0.0,0.0,0.006889,0.0,0.0,0.0,0.006889
1349442727711380962,83,1349442727714102983,auk,-0.0130436689499,0.00205880018294,0.347057001471,0.937751065994,0.0,0.0,0.0,0.0,0.0,0.0,0.0,0.0,0.0,0.0123045712266,0.00471238898038,0.00942477796077,0.000169,0.0,0.0,0.0,0.000169,0.0,0.0,0.0,0.000169,-0.15696,-0.1962,9.9081,0.006889,0.0,0.0,0.0,0.006889,0.0,0.0,0.0,0.006889
1349442727731561585,84,1349442727734102964,auk,-0.0130227761422,0.00225049128722,0.347221958326,0.937689849709,0.0,0.0,0.0,0.0,0.0,0.0,0.0,0.0,0.0,-0.0107337748998,-0.00602138591938,-0.00261799387799,0.000169,0.0,0.0,0.0,0.000169,0.0,0.0,0.0,0.000169,-0.13734,-0.21582,9.88848,0.006889,0.0,0.0,0.0,0.006889,0.0,0.0,0.0,0.006889
1349442727756853399,85,1349442727754101038,auk,-0.0130746895885,0.00213607510114,0.34738506275,0.937628981983,0.0,0.0,0.0,0.0,0.0,0.0,0.0,0.0,0.0,-0.00314159265359,-0.00497418836818,0.00445058959259,0.000169,0.0,0.0,0.0,0.000169,0.0,0.0,0.0,0.000169,-0.10791,-0.22563,9.85905,0.006889,0.0,0.0,0.0,0.006889,0.0,0.0,0.0,0.006889
1349442727771614145,86,1349442727774101019,auk,-0.0131566968153,0.00210461189708,0.347467069977,0.937597518778,0.0,0.0,0.0,0.0,0.0,0.0,0.0,0.0,0.0,-0.00890117918517,-0.00837758040957,-0.00366519142919,0.000169,0.0,0.0,0.0,0.000169,0.0,0.0,0.0,0.000169,-0.15696,-0.24525,9.86886,0.006889,0.0,0.0,0.0,0.006889,0.0,0.0,0.0,0.006889
1349442727791835072,87,1349442727794101000,auk,-0.0132388794141,0.00207197907826,0.347630888459,0.937535708314,0.0,0.0,0.0,0.0,0.0,0.0,0.0,0.0,0.0,0.000261799387799,0.00209439510239,-0.0125663706144,0.000169,0.0,0.0,0.0,0.000169,0.0,0.0,0.0,0.000169,-0.10791,-0.22563,9.91791,0.006889,0.0,0.0,0.0,0.006889,0.0,0.0,0.0,0.006889
1349442727811599226,88,1349442727814098835,auk,-0.0131270922611,0.00201820436767,0.347793579765,0.937477056879,0.0,0.0,0.0,0.0,0.0,0.0,0.0,0.0,0.0,0.00942477796077,0.00549778714378,-0.00994837673637,0.000169,0.0,0.0,0.0,0.000169,0.0,0.0,0.0,0.000169,-0.07848,-0.22563,9.9081,0.006889,0.0,0.0,0.0,0.006889,0.0,0.0,0.0,0.006889
1349442727831689269,89,1349442727834099054,auk,-0.0131785640934,0.00190603884771,0.347792992462,0.937476787371,0.0,0.0,0.0,0.0,0.0,0.0,0.0,0.0,0.0,0.0123045712266,-0.0010471975512,-0.00759218224618,0.000169,0.0,0.0,0.0,0.000169,0.0,0.0,0.0,0.000169,-0.08829,-0.24525,9.89829,0.006889,0.0,0.0,0.0,0.006889,0.0,0.0,0.0,0.006889
1349442727851685233,90,1349442727854096889,auk,-0.0132605379603,0.00187453098322,0.347874966329,0.937445279506,0.0,0.0,0.0,0.0,0.0,0.0,0.0,0.0,0.0,0.00340339204139,-0.001308996939,-0.00366519142919,0.000169,0.0,0.0,0.0,0.000169,0.0,0.0,0.0,0.000169,-0.12753,-0.25506,9.86886,0.006889,0.0,0.0,0.0,0.006889,0.0,0.0,0.0,0.006889
1349442727871220724,91,1349442727874096870,auk,-0.0133730267969,0.00192365116902,0.348039514301,0.93738250368,0.0,0.0,0.0,0.0,0.0,0.0,0.0,0.0,0.0,0.0159697626557,-0.00497418836818,-0.00523598775598,0.000169,0.0,0.0,0.0,0.000169,0.0,0.0,0.0,0.000169,-0.13734,-0.23544,9.85905,0.006889,0.0,0.0,0.0,0.006889,0.0,0.0,0.0,0.006889
1349442727891967361,92,1349442727894096851,auk,-0.0132915655299,0.00195170355284,0.348202944117,0.937322908526,0.0,0.0,0.0,0.0,0.0,0.0,0.0,0.0,0.0,0.0157079632679,-0.00287979326579,-0.00366519142919,0.000169,0.0,0.0,0.0,0.000169,0.0,0.0,0.0,0.000169,-0.0981,-0.20601,9.86886,0.006889,0.0,0.0,0.0,0.006889,0.0,0.0,0.0,0.006889
1349442727911656571,93,1349442727914094925,auk,-0.0131797259674,0.00189798816589,0.348365599517,0.937264157822,0.0,0.0,0.0,0.0,0.0,0.0,0.0,0.0,0.0,0.00523598775598,-0.00916297857297,-0.0115191730632,0.000169,0.0,0.0,0.0,0.000169,0.0,0.0,0.0,0.000169,-0.12753,-0.22563,9.85905,0.006889,0.0,0.0,0.0,0.006889,0.0,0.0,0.0,0.006889
1349442727931786494,94,1349442727934094906,auk,-0.0131286733062,0.00200789375211,0.348529765179,0.937203611327,0.0,0.0,0.0,0.0,0.0,0.0,0.0,0.0,0.0,-0.00602138591938,-0.00890117918517,-0.00471238898038,0.000169,0.0,0.0,0.0,0.000169,0.0,0.0,0.0,0.000169,-0.13734,-0.21582,9.88848,0.006889,0.0,0.0,0.0,0.006889,0.0,0.0,0.0,0.006889
1349442727951651289,95,1349442727954092979,auk,-0.0130776593662,0.00211781731432,0.348693900734,0.937143027113,0.0,0.0,0.0,0.0,0.0,0.0,0.0,0.0,0.0,-0.00261799387799,0.0102101761242,0.00471238898038,0.000169,0.0,0.0,0.0,0.000169,0.0,0.0,0.0,0.000169,-0.12753,-0.18639,9.93753,0.006889,0.0,0.0,0.0,0.006889,0.0,0.0,0.0,0.006889
1349442727971548772,96,1349442727974092960,auk,-0.0130266841536,0.00222775883892,0.34885800617,0.937082405192,0.0,0.0,0.0,0.0,0.0,0.0,0.0,0.0,0.0,0.00183259571459,-0.000523598775598,0.00314159265359,0.000169,0.0,0.0,0.0,0.000169,0.0,0.0,0.0,0.000169,-0.14715,-0.20601,9.91791,0.006889,0.0,0.0,0.0,0.006889,0.0,0.0,0.0,0.006889
1349442727991213270,97,1349442727994092941,auk,-0.012945302171,0.00225594308746,0.34902135705,0.937022636971,0.0,0.0,0.0,0.0,0.0,0.0,0.0,0.0,0.0,-0.00183259571459,0.00235619449019,0.000523598775598,0.000169,0.0,0.0,0.0,0.000169,0.0,0.0,0.0,0.000169,-0.12753,-0.1962,9.88848,0.006889,0.0,0.0,0.0,0.006889,0.0,0.0,0.0,0.006889
1349442728011258822,98,1349442728014091015,auk,-0.0128430846108,0.0024781679497,0.34918591172,0.936962172618,0.0,0.0,0.0,0.0,0.0,0.0,0.0,0.0,0.0,-0.00654498469498,-0.0109955742876,0.000523598775598,0.000169,0.0,0.0,0.0,0.000169,0.0,0.0,0.0,0.000169,-0.13734,-0.1962,9.9081,0.006889,0.0,0.0,0.0,0.006889,0.0,0.0,0.0,0.006889
1349442728031504544,99,1349442728034090996,auk,-0.0127611002189,0.00250975378516,0.349103927328,0.936993758454,0.0,0.0,0.0,0.0,0.0,0.0,0.0,0.0,0.0,0.00392699081699,0.00785398163397,-0.00890117918517,0.000169,0.0,0.0,0.0,0.000169,0.0,0.0,0.0,0.000169,-0.12753,-0.21582,9.91791,0.006889,0.0,0.0,0.0,0.006889,0.0,0.0,0.0,0.006889
1349442728051698234,100,1349442728054090977,auk,-0.0128124156034,0.00239751603621,0.349103437595,0.936993534547,0.0,0.0,0.0,0.0,0.0,0.0,0.0,0.0,0.0,0.00471238898038,0.0125663706144,-0.00863937979737,0.000169,0.0,0.0,0.0,0.000169,0.0,0.0,0.0,0.000169,-0.11772,-0.25506,9.89829,0.006889,0.0,0.0,0.0,0.006889,0.0,0.0,0.0,0.006889
1349442728071466720,101,1349442728074089050,auk,-0.0128941836657,0.00236705100504,0.349103645489,0.936992412885,0.0,0.0,0.0,0.0,0.0,0.0,0.0,0.0,0.0,-0.00549778714378,0.00418879020479,-0.00366519142919,0.000169,0.0,0.0,0.0,0.000169,0.0,0.0,0.0,0.000169,-0.14715,-0.26487,9.89829,0.006889,0.0,0.0,0.0,0.006889,0.0,0.0,0.0,0.006889
1349442728091691628,102,1349442728094089031,auk,-0.0130370747412,0.00249899334735,0.349187057878,0.936959011016,0.0,0.0,0.0,0.0,0.0,0.0,0.0,0.0,0.0,0.00314159265359,0.00445058959259,0.01308996939,0.000169,0.0,0.0,0.0,0.000169,0.0,0.0,0.0,0.000169,-0.14715,-0.25506,9.89829,0.006889,0.0,0.0,0.0,0.006889,0.0,0.0,0.0,0.006889
1349442728111700161,103,1349442728114086866,auk,-0.0130070368501,0.00241495335426,0.349349863959,0.936898958023,0.0,0.0,0.0,0.0,0.0,0.0,0.0,0.0,0.0,0.00287979326579,-0.0102101761242,0.00811578102177,0.000169,0.0,0.0,0.0,0.000169,0.0,0.0,0.0,0.000169,-0.11772,-0.17658,9.91791,0.006889,0.0,0.0,0.0,0.006889,0.0,0.0,0.0,0.006889
1349442728131337408,104,1349442728134086847,auk,-0.0128134604974,0.00239192533722,0.349512244906,0.936841120246,0.0,0.0,0.0,0.0,0.0,0.0,0.0,0.0,0.0,0.0178023583703,0.00471238898038,0.0102101761242,0.000169,0.0,0.0,0.0,0.000169,0.0,0.0,0.0,0.000169,-0.06867,-0.17658,9.91791,0.006889,0.0,0.0,0.0,0.006889,0.0,0.0,0.0,0.006889
1349442728151744257,105,1349442728154086828,auk,-0.0127016254185,0.00233844974994,0.349674836928,0.936782103151,0.0,0.0,0.0,0.0,0.0,0.0,0.0,0.0,0.0,-0.00575958653158,-0.0172787595947,-0.00157079632679,0.000169,0.0,0.0,0.0,0.000169,0.0,0.0,0.0,0.000169,-0.04905,-0.1962,9.92772,0.006889,0.0,0.0,0.0,0.006889,0.0,0.0,0.0,0.006889
1349442728171671562,106,1349442728174084902,auk,-0.0125074205298,0.00231881669706,0.349591981409,0.936815688412,0.0,0.0,0.0,0.0,0.0,0.0,0.0,0.0,0.0,-0.0136135681656,0.00314159265359,-0.00733038285838,0.000169,0.0,0.0,0.0,0.000169,0.0,0.0,0.0,0.000169,-0.08829,-0.21582,9.9081,0.006889,0.0,0.0,0.0,0.006889,0.0,0.0,0.0,0.006889
1349442728191561924,107,1349442728194084883,auk,-0.0126400496595,0.00217825065567,0.349428162714,0.936875361759,0.0,0.0,0.0,0.0,0.0,0.0,0.0,0.0,0.0,0.000523598775598,0.00445058959259,-0.00209439510239,0.000169,0.0,0.0,0.0,0.000169,0.0,0.0,0.0,0.000169,-0.11772,-0.23544,9.88848,0.006889,0.0,0.0,0.0,0.006889,0.0,0.0,0.0,0.006889
1349442728211690522,108,1349442728214082956,auk,-0.0126915060251,0.00206488764396,0.349509390166,0.936844623243,0.0,0.0,0.0,0.0,0.0,0.0,0.0,0.0,0.0,0.00314159265359,-0.00314159265359,-0.00314159265359,0.000169,0.0,0.0,0.0,0.000169,0.0,0.0,0.0,0.000169,-0.10791,-0.21582,9.87867,0.006889,0.0,0.0,0.0,0.006889,0.0,0.0,0.0,0.006889
1349442728231846353,109,1349442728234082937,auk,-0.0125796131784,0.00201143303141,0.349672000685,0.936785567463,0.0,0.0,0.0,0.0,0.0,0.0,0.0,0.0,0.0,0.000785398163397,-0.00602138591938,-0.00366519142919,0.000169,0.0,0.0,0.0,0.000169,0.0,0.0,0.0,0.000169,-0.08829,-0.20601,9.87867,0.006889,0.0,0.0,0.0,0.006889,0.0,0.0,0.0,0.006889
1349442728257428423,110,1349442728254082918,auk,-0.0124677017223,0.00195801738603,0.349834610177,0.936726463864,0.0,0.0,0.0,0.0,0.0,0.0,0.0,0.0,0.0,0.0125663706144,0.0102101761242,0.00445058959259,0.000169,0.0,0.0,0.0,0.000169,0.0,0.0,0.0,0.000169,-0.0981,-0.20601,9.88848,0.006889,0.0,0.0,0.0,0.006889,0.0,0.0,0.0,0.006889
1349442728271490807,111,1349442728274080992,auk,-0.0125192507673,0.00184355464723,0.349997545717,0.936665141691,0.0,0.0,0.0,0.0,0.0,0.0,0.0,0.0,0.0,-0.00235619449019,0.0154461638801,0.00287979326579,0.000169,0.0,0.0,0.0,0.000169,0.0,0.0,0.0,0.000169,-0.10791,-0.24525,9.89829,0.006889,0.0,0.0,0.0,0.006889,0.0,0.0,0.0,0.006889
1349442728291360635,112,1349442728294080973,auk,-0.012540213875,0.00164733585954,0.350159720502,0.936604612127,0.0,0.0,0.0,0.0,0.0,0.0,0.0,0.0,0.0,0.00366519142919,0.000523598775598,-0.0109955742876,0.000169,0.0,0.0,0.0,0.000169,0.0,0.0,0.0,0.000169,-0.10791,-0.23544,9.9081,0.006889,0.0,0.0,0.0,0.006889,0.0,0.0,0.0,0.006889
1349442728311452565,113,1349442728314079046,auk,-0.0125099405212,0.00156341425888,0.350322450581,0.936544306343,0.0,0.0,0.0,0.0,0.0,0.0,0.0,0.0,0.0,0.00314159265359,0.00706858347058,0.00575958653158,0.000169,0.0,0.0,0.0,0.000169,0.0,0.0,0.0,0.000169,-0.10791,-0.1962,9.88848,0.006889,0.0,0.0,0.0,0.006889,0.0,0.0,0.0,0.006889
1349442728331431486,114,1349442728334079027,auk,-0.0123979144706,0.00151008886149,0.350485037161,0.936485050641,0.0,0.0,0.0,0.0,0.0,0.0,0.0,0.0,0.0,-0.00497418836818,0.000523598775598,-0.0115191730632,0.000169,0.0,0.0,0.0,0.000169,0.0,0.0,0.0,0.000169,-0.10791,-0.21582,9.86886,0.006889,0.0,0.0,0.0,0.006889,0.0,0.0,0.0,0.006889
1349442728351579424,115,1349442728354079008,auk,-0.0124287672138,0.00158964729266,0.350649207479,0.936423051864,0.0,0.0,0.0,0.0,0.0,0.0,0.0,0.0,0.0,0.00706858347058,0.000523598775598,-0.00549778714378,0.000169,0.0,0.0,0.0,0.000169,0.0,0.0,0.0,0.000169,-0.13734,-0.20601,9.9081,0.006889,0.0,0.0,0.0,0.006889,0.0,0.0,0.0,0.006889
1349442728371729319,116,1349442728374076843,auk,-0.0123779350491,0.00169980922054,0.350813217159,0.93636210092,0.0,0.0,0.0,0.0,0.0,0.0,0.0,0.0,0.0,0.00340339204139,-0.001308996939,0.00157079632679,0.000169,0.0,0.0,0.0,0.000169,0.0,0.0,0.0,0.000169,-0.13734,-0.18639,9.88848,0.006889,0.0,0.0,0.0,0.006889,0.0,0.0,0.0,0.006889
1349442728391966100,117,1349442728394076824,auk,-0.0123570983492,0.00189601429497,0.350651050424,0.936422740052,0.0,0.0,0.0,0.0,0.0,0.0,0.0,0.0,0.0,0.00235619449019,-0.000261799387799,0.00785398163397,0.000169,0.0,0.0,0.0,0.000169,0.0,0.0,0.0,0.000169,-0.12753,-0.17658,9.85905,0.006889,0.0,0.0,0.0,0.006889,0.0,0.0,0.0,0.006889
1349442728411682763,118,1349442728414074898,auk,-0.0122444685168,0.00184702900952,0.350486742583,0.936485827308,0.0,0.0,0.0,0.0,0.0,0.0,0.0,0.0,0.0,0.010471975512,0.0191113553093,0.00497418836818,0.000169,0.0,0.0,0.0,0.000169,0.0,0.0,0.0,0.000169,-0.08829,-0.18639,9.88848,0.006889,0.0,0.0,0.0,0.006889,0.0,0.0,0.0,0.006889
1349442728431777694,119,1349442728434074879,auk,-0.0120501264805,0.00182857571031,0.350322274092,0.936549921273,0.0,0.0,0.0,0.0,0.0,0.0,0.0,0.0,0.0,0.000523598775598,0.00366519142919,-0.0112573736754,0.000169,0.0,0.0,0.0,0.000169,0.0,0.0,0.0,0.000169,-0.06867,-0.20601,9.89829,0.006889,0.0,0.0,0.0,0.006889,0.0,0.0,0.0,0.006889
1349442728457422272,120,1349442728454074860,auk,-0.0121827297353,0.00168782607843,0.350158419599,0.936609744516,0.0,0.0,0.0,0.0,0.0,0.0,0.0,0.0,0.0,-0.0149225651046,-0.00863937979737,0.00811578102177,0.000169,0.0,0.0,0.0,0.000169,0.0,0.0,0.0,0.000169,-0.0981,-0.22563,9.89829,0.006889,0.0,0.0,0.0,0.006889,0.0,0.0,0.0,0.006889
1349442728471497229,121,1349442728474072933,auk,-0.0122033707763,0.00149379211399,0.350157134208,0.936610285919,0.0,0.0,0.0,0.0,0.0,0.0,0.0,0.0,0.0,-0.00183259571459,-0.00628318530718,0.00445058959259,0.000169,0.0,0.0,0.0,0.000169,0.0,0.0,0.0,0.000169,-0.10791,-0.24525,9.88848,0.006889,0.0,0.0,0.0,0.006889,0.0,0.0,0.0,0.006889
1349442728491914696,122,1349442728494072914,auk,-0.0122547994901,0.00137935789893,0.350320000377,0.936548885321,0.0,0.0,0.0,0.0,0.0,0.0,0.0,0.0,0.0,-0.0128281700022,-0.00183259571459,-0.00733038285838,0.000169,0.0,0.0,0.0,0.000169,0.0,0.0,0.0,0.000169,-0.07848,-0.24525,9.9081,0.006889,0.0,0.0,0.0,0.006889,0.0,0.0,0.0,0.006889
1349442728511812322,123,1349442728514072895,auk,-0.0123879124807,0.00123432048475,0.350482945227,0.936486369993,0.0,0.0,0.0,0.0,0.0,0.0,0.0,0.0,0.0,-0.00523598775598,0.000261799387799,0.0175405589825,0.000169,0.0,0.0,0.0,0.000169,0.0,0.0,0.0,0.000169,-0.08829,-0.23544,9.91791,0.006889,0.0,0.0,0.0,0.006889,0.0,0.0,0.0,0.006889
1349442728531855355,124,1349442728534070969,auk,-0.0125005476431,0.00128219002044,0.350728961254,0.936392699691,0.0,0.0,0.0,0.0,0.0,0.0,0.0,0.0,0.0,0.00471238898038,-0.00759218224618,0.0230383461263,0.000169,0.0,0.0,0.0,0.000169,0.0,0.0,0.0,0.000169,-0.13734,-0.22563,9.88848,0.006889,0.0,0.0,0.0,0.006889,0.0,0.0,0.0,0.006889
1349442728551830714,125,1349442728554070950,auk,-0.0126130922686,0.00133110121642,0.350893252339,0.936329569936,0.0,0.0,0.0,0.0,0.0,0.0,0.0,0.0,0.0,-0.00445058959259,0.00287979326579,0.00340339204139,0.000169,0.0,0.0,0.0,0.000169,0.0,0.0,0.0,0.000169,-0.13734,-0.22563,9.9081,0.006889,0.0,0.0,0.0,0.006889,0.0,0.0,0.0,0.006889
1349442728571491288,126,1349442728574069023,auk,-0.0125316195258,0.0013595352647,0.351056550027,0.936269410404,0.0,0.0,0.0,0.0,0.0,0.0,0.0,0.0,0.0,-0.0159697626557,0.00628318530718,-0.00968657734857,0.000169,0.0,0.0,0.0,0.000169,0.0,0.0,0.0,0.000169,-0.0981,-0.1962,9.9081,0.006889,0.0,0.0,0.0,0.006889,0.0,0.0,0.0,0.006889
1349442728591329335,127,1349442728594069004,auk,-0.0124501569996,0.00138799778161,0.35121983473,0.936209215264,0.0,0.0,0.0,0.0,0.0,0.0,0.0,0.0,0.0,-0.000261799387799,-0.00287979326579,-0.00445058959259,0.000169,0.0,0.0,0.0,0.000169,0.0,0.0,0.0,0.000169,-0.13734,-0.21582,9.89829,0.006889,0.0,0.0,0.0,0.006889,0.0,0.0,0.0,0.006889
1349442728611176603,128,1349442728614068985,auk,-0.012593400234,0.00151855707282,0.351384834589,0.936145180127,0.0,0.0,0.0,0.0,0.0,0.0,0.0,0.0,0.0,0.00863937979737,0.00235619449019,0.000261799387799,0.000169,0.0,0.0,0.0,0.000169,0.0,0.0,0.0,0.000169,-0.17658,-0.26487,9.9081,0.006889,0.0,0.0,0.0,0.006889,0.0,0.0,0.0,0.006889
1349442728631604959,129,1349442728634066820,auk,-0.0127060212523,0.00156737340417,0.351549094492,0.936081905886,0.0,0.0,0.0,0.0,0.0,0.0,0.0,0.0,0.0,0.0170169602069,-0.00654498469498,0.00497418836818,0.000169,0.0,0.0,0.0,0.000169,0.0,0.0,0.0,0.000169,-0.15696,-0.28449,9.86886,0.006889,0.0,0.0,0.0,0.006889,0.0,0.0,0.0,0.006889
1349442728656871000,130,1349442728654067039,auk,-0.012818659352,0.00161615031428,0.351713351912,0.936018583212,0.0,0.0,0.0,0.0,0.0,0.0,0.0,0.0,0.0,-0.00157079632679,0.00890117918517,0.00445058959259,0.000169,0.0,0.0,0.0,0.000169,0.0,0.0,0.0,0.000169,-0.10791,-0.23544,9.89829,0.006889,0.0,0.0,0.0,0.006889,0.0,0.0,0.0,0.006889
1349442728671640609,131,1349442728674064875,auk,-0.0127065675948,0.00156293807066,0.351875827294,0.935959135075,0.0,0.0,0.0,0.0,0.0,0.0,0.0,0.0,0.0,0.00994837673637,0.0193731546971,-0.0010471975512,0.000169,0.0,0.0,0.0,0.000169,0.0,0.0,0.0,0.000169,-0.0981,-0.20601,9.91791,0.006889,0.0,0.0,0.0,0.006889,0.0,0.0,0.0,0.006889
1349442728691852598,132,1349442728694064856,auk,-0.0127578024269,0.00144832255432,0.352038559675,0.93589742672,0.0,0.0,0.0,0.0,0.0,0.0,0.0,0.0,0.0,0.00235619449019,0.00261799387799,0.00340339204139,0.000169,0.0,0.0,0.0,0.000169,0.0,0.0,0.0,0.000169,-0.12753,-0.23544,9.87867,0.006889,0.0,0.0,0.0,0.006889,0.0,0.0,0.0,0.006889
1349442728711413021,133,1349442728714064837,auk,-0.0128704464328,0.00149703158769,0.352202783867,0.935834018158,0.0,0.0,0.0,0.0,0.0,0.0,0.0,0.0,0.0,0.0172787595947,-0.0157079632679,-0.00445058959259,0.000169,0.0,0.0,0.0,0.000169,0.0,0.0,0.0,0.000169,-0.14715,-0.24525,9.86886,0.006889,0.0,0.0,0.0,0.006889,0.0,0.0,0.0,0.006889
1349442728731796616,134,1349442728734062910,auk,-0.01293218448,0.00165811674881,0.352367623579,0.935770841129,0.0,0.0,0.0,0.0,0.0,0.0,0.0,0.0,0.0,0.0,-0.0102101761242,0.00183259571459,0.000169,0.0,0.0,0.0,0.000169,0.0,0.0,0.0,0.000169,-0.11772,-0.20601,9.9081,0.006889,0.0,0.0,0.0,0.006889,0.0,0.0,0.0,0.006889
1349442728753025091,135,1349442728754062891,auk,-0.0127691613968,0.00171738786241,0.352530646663,0.935711570015,0.0,0.0,0.0,0.0,0.0,0.0,0.0,0.0,0.0,-0.00209439510239,0.00575958653158,-0.00706858347058,0.000169,0.0,0.0,0.0,0.000169,0.0,0.0,0.0,0.000169,-0.12753,-0.21582,9.92772,0.006889,0.0,0.0,0.0,0.006889,0.0,0.0,0.0,0.006889
1349442728771481855,136,1349442728774060965,auk,-0.0128818786753,0.00176603589919,0.352694846267,0.935648055486,0.0,0.0,0.0,0.0,0.0,0.0,0.0,0.0,0.0,-0.00942477796077,-0.00916297857297,-0.011780972451,0.000169,0.0,0.0,0.0,0.000169,0.0,0.0,0.0,0.000169,-0.15696,-0.23544,9.9081,0.006889,0.0,0.0,0.0,0.006889,0.0,0.0,0.0,0.006889
1349442728791686853,137,1349442728794060946,auk,-0.0129129677763,0.00184543723805,0.352858883615,0.935585622954,0.0,0.0,0.0,0.0,0.0,0.0,0.0,0.0,0.0,0.00916297857297,-0.00628318530718,-0.0010471975512,0.000169,0.0,0.0,0.0,0.000169,0.0,0.0,0.0,0.000169,-0.13734,-0.21582,9.88848,0.006889,0.0,0.0,0.0,0.006889,0.0,0.0,0.0,0.006889
1349442728811452550,138,1349442728814060926,auk,-0.0129440848867,0.00192482776205,0.353022907225,0.935523154539,0.0,0.0,0.0,0.0,0.0,0.0,0.0,0.0,0.0,-0.0183259571459,-0.0010471975512,-0.00261799387799,0.000169,0.0,0.0,0.0,0.000169,0.0,0.0,0.0,0.000169,-0.10791,-0.22563,9.85905,0.006889,0.0,0.0,0.0,0.006889,0.0,0.0,0.0,0.006889
1349442728831635066,139,1349442728834059000,auk,-0.0129644361238,0.00172846953526,0.353184854257,0.93546212885,0.0,0.0,0.0,0.0,0.0,0.0,0.0,0.0,0.0,0.00916297857297,-0.0138753675534,0.010471975512,0.000169,0.0,0.0,0.0,0.000169,0.0,0.0,0.0,0.000169,-0.08829,-0.22563,9.86886,0.006889,0.0,0.0,0.0,0.006889,0.0,0.0,0.0,0.006889
1349442728851604629,140,1349442728854058981,auk,-0.0129333389122,0.00164908797753,0.353020828945,0.935524614098,0.0,0.0,0.0,0.0,0.0,0.0,0.0,0.0,0.0,0.00759218224618,-0.00785398163397,-0.00314159265359,0.000169,0.0,0.0,0.0,0.000169,0.0,0.0,0.0,0.000169,-0.08829,-0.21582,9.89829,0.006889,0.0,0.0,0.0,0.006889,0.0,0.0,0.0,0.006889
1349442728871204861,141,1349442728874057055,auk,-0.0129840492769,0.00153776997139,0.352938569464,0.935555137826,0.0,0.0,0.0,0.0,0.0,0.0,0.0,0.0,0.0,-0.014398966329,-0.000785398163397,0.00497418836818,0.000169,0.0,0.0,0.0,0.000169,0.0,0.0,0.0,0.000169,-0.07848,-0.23544,9.88848,0.006889,0.0,0.0,0.0,0.006889,0.0,0.0,0.0,0.006889
1349442728891275905,142,1349442728894057035,auk,-0.0130351521186,0.00142304839287,0.353101211372,0.935493235823,0.0,0.0,0.0,0.0,0.0,0.0,0.0,0.0,0.0,-0.000785398163397,0.000261799387799,0.00366519142919,0.000169,0.0,0.0,0.0,0.000169,0.0,0.0,0.0,0.000169,-0.07848,-0.27468,9.82962,0.006889,0.0,0.0,0.0,0.006889,0.0,0.0,0.0,0.006889
1349442728911486142,143,1349442728914057016,auk,-0.0130862152578,0.00130830913942,0.353263822795,0.935431296676,0.0,0.0,0.0,0.0,0.0,0.0,0.0,0.0,0.0,-0.00209439510239,0.00759218224618,0.00366519142919,0.000169,0.0,0.0,0.0,0.000169,0.0,0.0,0.0,0.000169,-0.06867,-0.25506,9.82962,0.006889,0.0,0.0,0.0,0.006889,0.0,0.0,0.0,0.006889
1349442728931442714,144,1349442728934054852,auk,-0.013188033921,0.0010810794255,0.353425706842,0.935369005672,0.0,0.0,0.0,0.0,0.0,0.0,0.0,0.0,0.0,-0.00445058959259,0.0128281700022,0.0107337748998,0.000169,0.0,0.0,0.0,0.000169,0.0,0.0,0.0,0.000169,-0.08829,-0.23544,9.85905,0.006889,0.0,0.0,0.0,0.006889,0.0,0.0,0.0,0.006889
1349442728951784055,145,1349442728954054832,auk,-0.0132191689538,0.00115924921771,0.353671373235,0.935275611501,0.0,0.0,0.0,0.0,0.0,0.0,0.0,0.0,0.0,-0.00994837673637,-0.000785398163397,0.0154461638801,0.000169,0.0,0.0,0.0,0.000169,0.0,0.0,0.0,0.000169,-0.10791,-0.23544,9.9081,0.006889,0.0,0.0,0.0,0.006889,0.0,0.0,0.0,0.006889
1349442728971595069,146,1349442728974052906,auk,-0.0131686249,0.00126943703246,0.353835291437,0.935214179951,0.0,0.0,0.0,0.0,0.0,0.0,0.0,0.0,0.0,-0.000785398163397,-0.00602138591938,0.000261799387799,0.000169,0.0,0.0,0.0,0.000169,0.0,0.0,0.0,0.000169,-0.10791,-0.21582,9.91791,0.006889,0.0,0.0,0.0,0.006889,0.0,0.0,0.0,0.006889
1349442728992021473,147,1349442728994052887,auk,-0.0132195728027,0.00115463478673,0.353997824458,0.935152099924,0.0,0.0,0.0,0.0,0.0,0.0,0.0,0.0,0.0,-0.00418879020479,0.00994837673637,-0.011780972451,0.000169,0.0,0.0,0.0,0.000169,0.0,0.0,0.0,0.000169,-0.0981,-0.24525,9.9081,0.006889,0.0,0.0,0.0,0.006889,0.0,0.0,0.0,0.006889
1349442729011691894,148,1349442729014052868,auk,-0.0132395857567,0.000958208699784,0.354159518095,0.935090814278,0.0,0.0,0.0,0.0,0.0,0.0,0.0,0.0,0.0,-0.0120427718388,0.00654498469498,0.0141371669412,0.000169,0.0,0.0,0.0,0.000169,0.0,0.0,0.0,0.000169,-0.10791,-0.22563,9.89829,0.006889,0.0,0.0,0.0,0.006889,0.0,0.0,0.0,0.006889
1349442729031781862,149,1349442729034050941,auk,-0.013107468856,0.00109933987416,0.354323339071,0.935030457847,0.0,0.0,0.0,0.0,0.0,0.0,0.0,0.0,0.0,0.00733038285838,-0.0128281700022,-0.010471975512,0.000169,0.0,0.0,0.0,0.000169,0.0,0.0,0.0,0.000169,-0.13734,-0.18639,9.88848,0.006889,0.0,0.0,0.0,0.006889,0.0,0.0,0.0,0.006889
1349442729057354859,150,1349442729054049015,auk,-0.0130568872907,0.00121072201825,0.354405621913,0.934999843317,0.0,0.0,0.0,0.0,0.0,0.0,0.0,0.0,0.0,-0.0112573736754,-0.0102101761242,-0.0261799387799,0.000169,0.0,0.0,0.0,0.000169,0.0,0.0,0.0,0.000169,-0.13734,-0.18639,9.87867,0.006889,0.0,0.0,0.0,0.006889,0.0,0.0,0.0,0.006889
1349442729071633886,151,1349442729074048996,auk,-0.0130064405389,0.00132097809523,0.354569472575,0.93493827424,0.0,0.0,0.0,0.0,0.0,0.0,0.0,0.0,0.0,-0.00287979326579,-0.0138753675534,0.0123045712266,0.000169,0.0,0.0,0.0,0.000169,0.0,0.0,0.0,0.000169,-0.08829,-0.17658,9.9081,0.006889,0.0,0.0,0.0,0.006889,0.0,0.0,0.0,0.006889
1349442729091584657,152,1349442729094048977,auk,-0.0128631969361,0.00118648895333,0.354730990865,0.934879165737,0.0,0.0,0.0,0.0,0.0,0.0,0.0,0.0,0.0,-0.00471238898038,0.00497418836818,-0.00628318530718,0.000169,0.0,0.0,0.0,0.000169,0.0,0.0,0.0,0.000169,-0.08829,-0.20601,9.88848,0.006889,0.0,0.0,0.0,0.006889,0.0,0.0,0.0,0.006889
1349442729111525101,153,1349442729114047050,auk,-0.0128323478834,0.00110378144623,0.354811800436,0.934849024595,0.0,0.0,0.0,0.0,0.0,0.0,0.0,0.0,0.0,0.00209439510239,0.00471238898038,-0.00680678408278,0.000169,0.0,0.0,0.0,0.000169,0.0,0.0,0.0,0.000169,-0.0981,-0.23544,9.85905,0.006889,0.0,0.0,0.0,0.006889,0.0,0.0,0.0,0.006889
1349442729131580359,154,1349442729134047031,auk,-0.0128013952413,0.00102219646092,0.354811025058,0.934849836012,0.0,0.0,0.0,0.0,0.0,0.0,0.0,0.0,0.0,0.0128281700022,0.00706858347058,0.0109955742876,0.000169,0.0,0.0,0.0,0.000169,0.0,0.0,0.0,0.000169,-0.08829,-0.21582,9.85905,0.006889,0.0,0.0,0.0,0.006889,0.0,0.0,0.0,0.006889
1349442729151740663,155,1349442729154044867,auk,-0.0126384219933,0.00108191684687,0.354973998306,0.934790115626,0.0,0.0,0.0,0.0,0.0,0.0,0.0,0.0,0.0,0.00968657734857,-0.00759218224618,-0.00968657734857,0.000169,0.0,0.0,0.0,0.000169,0.0,0.0,0.0,0.000169,-0.10791,-0.18639,9.86886,0.006889,0.0,0.0,0.0,0.006889,0.0,0.0,0.0,0.006889
1349442729171270352,156,1349442729174044847,auk,-0.0125880214942,0.00119227694378,0.355137802716,0.934728442529,0.0,0.0,0.0,0.0,0.0,0.0,0.0,0.0,0.0,-0.00314159265359,-0.00785398163397,-0.00418879020479,0.000169,0.0,0.0,0.0,0.000169,0.0,0.0,0.0,0.000169,-0.12753,-0.21582,9.86886,0.006889,0.0,0.0,0.0,0.006889,0.0,0.0,0.0,0.006889
1349442729191241030,157,1349442729194044828,auk,-0.0127007897808,0.00124064293343,0.355301798708,0.934664529432,0.0,0.0,0.0,0.0,0.0,0.0,0.0,0.0,0.0,-0.00261799387799,0.00340339204139,-0.0107337748998,0.000169,0.0,0.0,0.0,0.000169,0.0,0.0,0.0,0.000169,-0.10791,-0.24525,9.86886,0.006889,0.0,0.0,0.0,0.006889,0.0,0.0,0.0,0.006889
1349442729211311302,158,1349442729214042902,auk,-0.0127010061204,0.00123842620855,0.35546492303,0.934602503335,0.0,0.0,0.0,0.0,0.0,0.0,0.0,0.0,0.0,0.0128281700022,-0.00549778714378,-0.00157079632679,0.000169,0.0,0.0,0.0,0.000169,0.0,0.0,0.0,0.000169,-0.10791,-0.21582,9.84924,0.006889,0.0,0.0,0.0,0.006889,0.0,0.0,0.0,0.006889
1349442729231668425,159,1349442729234042883,auk,-0.0125691377197,0.00137983641756,0.355628556132,0.934541835817,0.0,0.0,0.0,0.0,0.0,0.0,0.0,0.0,0.0,-0.00392699081699,0.00261799387799,0.00916297857297,0.000169,0.0,0.0,0.0,0.000169,0.0,0.0,0.0,0.000169,-0.11772,-0.21582,9.86886,0.006889,0.0,0.0,0.0,0.006889,0.0,0.0,0.0,0.006889
1349442729251842831,160,1349442729254042864,auk,-0.0127635135595,0.00139709792129,0.355792646226,0.934476716527,0.0,0.0,0.0,0.0,0.0,0.0,0.0,0.0,0.0,0.00366519142919,-0.00445058959259,0.00942477796077,0.000169,0.0,0.0,0.0,0.000169,0.0,0.0,0.0,0.000169,-0.12753,-0.23544,9.89829,0.006889,0.0,0.0,0.0,0.006889,0.0,0.0,0.0,0.006889
1349442729271466668,161,1349442729274040937,auk,-0.0128763521879,0.0014453543814,0.355956614558,0.934412649239,0.0,0.0,0.0,0.0,0.0,0.0,0.0,0.0,0.0,-0.00602138591938,0.0198967534727,-0.000523598775598,0.000169,0.0,0.0,0.0,0.000169,0.0,0.0,0.0,0.000169,-0.11772,-0.23544,9.92772,0.006889,0.0,0.0,0.0,0.006889,0.0,0.0,0.0,0.006889
1349442729291972066,162,1349442729294040918,auk,-0.0129583879166,0.00140976805663,0.356282888793,0.93428721274,0.0,0.0,0.0,0.0,0.0,0.0,0.0,0.0,0.0,-0.000261799387799,0.0198967534727,0.0128281700022,0.000169,0.0,0.0,0.0,0.000169,0.0,0.0,0.0,0.000169,-0.10791,-0.22563,9.9081,0.006889,0.0,0.0,0.0,0.006889,0.0,0.0,0.0,0.006889
1349442729311633758,163,1349442729314038992,auk,-0.0130401602331,0.00137640058757,0.356446068717,0.934223881004,0.0,0.0,0.0,0.0,0.0,0.0,0.0,0.0,0.0,0.00261799387799,0.00628318530718,0.0010471975512,0.000169,0.0,0.0,0.0,0.000169,0.0,0.0,0.0,0.000169,-0.10791,-0.22563,9.9081,0.006889,0.0,0.0,0.0,0.006889,0.0,0.0,0.0,0.006889
1349442729331763189,164,1349442729334038973,auk,-0.012958879229,0.00140524464013,0.356608994841,0.934162789633,0.0,0.0,0.0,0.0,0.0,0.0,0.0,0.0,0.0,0.0010471975512,-0.0133517687778,-0.000523598775598,0.000169,0.0,0.0,0.0,0.000169,0.0,0.0,0.0,0.000169,-0.11772,-0.1962,9.88848,0.006889,0.0,0.0,0.0,0.006889,0.0,0.0,0.0,0.006889
1349442729353422737,165,1349442729354038954,auk,-0.0127652109106,0.00138150330899,0.356934059093,0.934041336504,0.0,0.0,0.0,0.0,0.0,0.0,0.0,0.0,0.0,-0.00575958653158,-0.00471238898038,-0.0102101761242,0.000169,0.0,0.0,0.0,0.000169,0.0,0.0,0.0,0.000169,-0.0981,-0.17658,9.86886,0.006889,0.0,0.0,0.0,0.006889,0.0,0.0,0.0,0.006889
1349442729371361895,166,1349442729374037027,auk,-0.0126841927145,0.00140822414378,0.357259957744,0.933917796571,0.0,0.0,0.0,0.0,0.0,0.0,0.0,0.0,0.0,-0.00366519142919,0.00445058959259,0.0125663706144,0.000169,0.0,0.0,0.0,0.000169,0.0,0.0,0.0,0.000169,-0.13734,-0.20601,9.83943,0.006889,0.0,0.0,0.0,0.006889,0.0,0.0,0.0,0.006889
1349442729391638694,167,1349442729394037008,auk,-0.0126654439919,0.00159909298251,0.357505785322,0.933823667986,0.0,0.0,0.0,0.0,0.0,0.0,0.0,0.0,0.0,0.00706858347058,0.011780972451,-0.0109955742876,0.000169,0.0,0.0,0.0,0.000169,0.0,0.0,0.0,0.000169,-0.15696,-0.1962,9.84924,0.006889,0.0,0.0,0.0,0.006889,0.0,0.0,0.0,0.006889
1349442729411221115,168,1349442729414034843,auk,-0.0125842368034,0.00162809490277,0.357668622137,0.93376235897,0.0,0.0,0.0,0.0,0.0,0.0,0.0,0.0,0.0,-0.00523598775598,-0.00157079632679,-0.0010471975512,0.000169,0.0,0.0,0.0,0.000169,0.0,0.0,0.0,0.000169,-0.12753,-0.20601,9.85905,0.006889,0.0,0.0,0.0,0.006889,0.0,0.0,0.0,0.006889
1349442729431613017,169,1349442729434034824,auk,-0.0125342557919,0.00173861015057,0.357832159454,0.933700174214,0.0,0.0,0.0,0.0,0.0,0.0,0.0,0.0,0.0,-0.00314159265359,-0.00575958653158,0.00575958653158,0.000169,0.0,0.0,0.0,0.000169,0.0,0.0,0.0,0.000169,-0.11772,-0.20601,9.87867,0.006889,0.0,0.0,0.0,0.006889,0.0,0.0,0.0,0.006889
1349442729451702633,170,1349442729454035044,auk,-0.0124218536826,0.00168618388643,0.357994256049,0.933639634426,0.0,0.0,0.0,0.0,0.0,0.0,0.0,0.0,0.0,-0.00287979326579,0.00890117918517,0.0133517687778,0.000169,0.0,0.0,0.0,0.000169,0.0,0.0,0.0,0.000169,-0.10791,-0.21582,9.85905,0.006889,0.0,0.0,0.0,0.006889,0.0,0.0,0.0,0.006889
1349442729471383186,171,1349442729474032879,auk,-0.0124718241749,0.00157564024694,0.357830729251,0.933701847574,0.0,0.0,0.0,0.0,0.0,0.0,0.0,0.0,0.0,0.00575958653158,0.0010471975512,-0.0193731546971,0.000169,0.0,0.0,0.0,0.000169,0.0,0.0,0.0,0.000169,-0.10791,-0.23544,9.83943,0.006889,0.0,0.0,0.0,0.006889,0.0,0.0,0.0,0.006889
1349442729491267745,172,1349442729494032860,auk,-0.0125219613935,0.00146402146483,0.357748656893,0.9337328074,0.0,0.0,0.0,0.0,0.0,0.0,0.0,0.0,0.0,-0.00733038285838,0.00759218224618,-0.010471975512,0.000169,0.0,0.0,0.0,0.000169,0.0,0.0,0.0,0.000169,-0.10791,-0.22563,9.86886,0.006889,0.0,0.0,0.0,0.006889,0.0,0.0,0.0,0.006889
1349442729511500967,173,1349442729514032841,auk,-0.0126349177012,0.00151208438054,0.357912478106,0.933668426408,0.0,0.0,0.0,0.0,0.0,0.0,0.0,0.0,0.0,0.0112573736754,0.001308996939,-0.0010471975512,0.000169,0.0,0.0,0.0,0.000169,0.0,0.0,0.0,0.000169,-0.11772,-0.23544,9.86886,0.006889,0.0,0.0,0.0,0.006889,0.0,0.0,0.0,0.006889
1349442729531655751,174,1349442729534030914,auk,-0.0128293630954,0.00152885970177,0.358076431292,0.933602880985,0.0,0.0,0.0,0.0,0.0,0.0,0.0,0.0,0.0,-0.00759218224618,0.001308996939,0.00392699081699,0.000169,0.0,0.0,0.0,0.000169,0.0,0.0,0.0,0.000169,-0.12753,-0.23544,9.84924,0.006889,0.0,0.0,0.0,0.006889,0.0,0.0,0.0,0.006889
1349442729553019306,175,1349442729554030895,auk,-0.012942347396,0.00157682924213,0.358240251058,0.933538393306,0.0,0.0,0.0,0.0,0.0,0.0,0.0,0.0,0.0,0.00183259571459,0.00759218224618,-0.00654498469498,0.000169,0.0,0.0,0.0,0.000169,0.0,0.0,0.0,0.000169,-0.12753,-0.23544,9.83943,0.006889,0.0,0.0,0.0,0.006889,0.0,0.0,0.0,0.006889
1349442729571630072,176,1349442729574028969,auk,-0.0130240834938,0.00154329376882,0.35840331483,0.933474721357,0.0,0.0,0.0,0.0,0.0,0.0,0.0,0.0,0.0,0.00968657734857,-0.00287979326579,0.00445058959259,0.000169,0.0,0.0,0.0,0.000169,0.0,0.0,0.0,0.000169,-0.11772,-0.25506,9.85905,0.006889,0.0,0.0,0.0,0.006889,0.0,0.0,0.0,0.006889
1349442729591570368,177,1349442729594028950,auk,-0.0131370873083,0.00159118974277,0.358567124667,0.933410146806,0.0,0.0,0.0,0.0,0.0,0.0,0.0,0.0,0.0,-0.0010471975512,0.00497418836818,0.0157079632679,0.000169,0.0,0.0,0.0,0.000169,0.0,0.0,0.0,0.000169,-0.13734,-0.23544,9.87867,0.006889,0.0,0.0,0.0,0.006889,0.0,0.0,0.0,0.006889
1349442729611506265,178,1349442729614028931,auk,-0.0131686580702,0.00167035133297,0.358730787234,0.933346676568,0.0,0.0,0.0,0.0,0.0,0.0,0.0,0.0,0.0,0.00968657734857,0.00314159265359,-0.00261799387799,0.000169,0.0,0.0,0.0,0.000169,0.0,0.0,0.0,0.000169,-0.15696,-0.23544,9.83943,0.006889,0.0,0.0,0.0,0.006889,0.0,0.0,0.0,0.006889
1349442729631556559,179,1349442729634027004,auk,-0.0132817010342,0.00171818248171,0.358894587142,0.933282015035,0.0,0.0,0.0,0.0,0.0,0.0,0.0,0.0,0.0,-0.00287979326579,-0.0010471975512,0.00968657734857,0.000169,0.0,0.0,0.0,0.000169,0.0,0.0,0.0,0.000169,-0.12753,-0.27468,9.82962,0.006889,0.0,0.0,0.0,0.006889,0.0,0.0,0.0,0.006889
1349442729651747660,180,1349442729654026985,auk,-0.0133321179898,0.00160308728485,0.359056850084,0.933219086361,0.0,0.0,0.0,0.0,0.0,0.0,0.0,0.0,0.0,0.0201585528605,-0.00287979326579,0.0109955742876,0.000169,0.0,0.0,0.0,0.000169,0.0,0.0,0.0,0.000169,-0.10791,-0.27468,9.86886,0.006889,0.0,0.0,0.0,0.006889,0.0,0.0,0.0,0.006889
1349442729671379254,181,1349442729674024820,auk,-0.0133827546204,0.0014856389462,0.359381943303,0.933093410963,0.0,0.0,0.0,0.0,0.0,0.0,0.0,0.0,0.0,-0.00445058959259,0.00392699081699,0.00235619449019,0.000169,0.0,0.0,0.0,0.000169,0.0,0.0,0.0,0.000169,-0.10791,-0.24525,9.84924,0.006889,0.0,0.0,0.0,0.006889,0.0,0.0,0.0,0.006889
1349442729691596896,182,1349442729694025040,auk,-0.0133518939904,0.00139954592884,0.359706852082,0.932968782309,0.0,0.0,0.0,0.0,0.0,0.0,0.0,0.0,0.0,0.0010471975512,0.0010471975512,0.00392699081699,0.000169,0.0,0.0,0.0,0.000169,0.0,0.0,0.0,0.000169,-0.10791,-0.22563,9.86886,0.006889,0.0,0.0,0.0,0.006889,0.0,0.0,0.0,0.006889
1349442729711479565,183,1349442729714025021,auk,-0.0132395687393,0.00134489332573,0.360031598907,0.932845192339,0.0,0.0,0.0,0.0,0.0,0.0,0.0,0.0,0.0,-0.00602138591938,-0.0123045712266,0.00837758040957,0.000169,0.0,0.0,0.0,0.000169,0.0,0.0,0.0,0.000169,-0.10791,-0.18639,9.9081,0.006889,0.0,0.0,0.0,0.006889,0.0,0.0,0.0,0.006889
1349442729731919109,184,1349442729734022856,auk,-0.0131270939702,0.00129146472104,0.360274915323,0.932752913108,0.0,0.0,0.0,0.0,0.0,0.0,0.0,0.0,0.0,0.0120427718388,-0.00314159265359,0.00314159265359,0.000169,0.0,0.0,0.0,0.000169,0.0,0.0,0.0,0.000169,-0.0981,-0.21582,9.86886,0.006889,0.0,0.0,0.0,0.006889,0.0,0.0,0.0,0.006889
1349442729757044675,185,1349442729754022837,auk,-0.0131772689639,0.00117632256981,0.36043703625,0.932689722655,0.0,0.0,0.0,0.0,0.0,0.0,0.0,0.0,0.0,-0.010471975512,-0.0112573736754,0.0112573736754,0.000169,0.0,0.0,0.0,0.000169,0.0,0.0,0.0,0.000169,-0.0981,-0.24525,9.87867,0.006889,0.0,0.0,0.0,0.006889,0.0,0.0,0.0,0.006889
1349442729771413752,186,1349442729774023056,auk,-0.0130645317344,0.00112523956923,0.360517547108,0.932660254366,0.0,0.0,0.0,0.0,0.0,0.0,0.0,0.0,0.0,-0.000785398163397,-0.00680678408278,0.00418879020479,0.000169,0.0,0.0,0.0,0.000169,0.0,0.0,0.0,0.000169,-0.11772,-0.18639,9.88848,0.006889,0.0,0.0,0.0,0.006889,0.0,0.0,0.0,0.006889
1349442729791491429,187,1349442729794020891,auk,-0.0130148076823,0.00123582345557,0.360680991295,0.932597614215,0.0,0.0,0.0,0.0,0.0,0.0,0.0,0.0,0.0,-0.00890117918517,0.00287979326579,-0.00942477796077,0.000169,0.0,0.0,0.0,0.000169,0.0,0.0,0.0,0.000169,-0.10791,-0.1962,9.88848,0.006889,0.0,0.0,0.0,0.006889,0.0,0.0,0.0,0.006889
1349442729811517551,188,1349442729814020872,auk,-0.0130465015555,0.00131493522506,0.360844521023,0.932533801741,0.0,0.0,0.0,0.0,0.0,0.0,0.0,0.0,0.0,0.000523598775598,0.00497418836818,-0.011780972451,0.000169,0.0,0.0,0.0,0.000169,0.0,0.0,0.0,0.000169,-0.11772,-0.23544,9.88848,0.006889,0.0,0.0,0.0,0.006889,0.0,0.0,0.0,0.006889
1349442729831856790,189,1349442729834018946,auk,-0.0130152382731,0.00123128035546,0.361006507294,0.932471655984,0.0,0.0,0.0,0.0,0.0,0.0,0.0,0.0,0.0,-0.000785398163397,0.00811578102177,0.00680678408278,0.000169,0.0,0.0,0.0,0.000169,0.0,0.0,0.0,0.000169,-0.07848,-0.21582,9.86886,0.006889,0.0,0.0,0.0,0.006889,0.0,0.0,0.0,0.006889
1349442729851638691,190,1349442729854018927,auk,-0.0128710709067,0.00109778193037,0.361167614252,0.932411435378,0.0,0.0,0.0,0.0,0.0,0.0,0.0,0.0,0.0,-0.00890117918517,0.00366519142919,0.00366519142919,0.000169,0.0,0.0,0.0,0.000169,0.0,0.0,0.0,0.000169,-0.06867,-0.1962,9.87867,0.006889,0.0,0.0,0.0,0.006889,0.0,0.0,0.0,0.006889
1349442729871474707,191,1349442729874018908,auk,-0.0126770151242,0.00107723247954,0.361329395794,0.932351436205,0.0,0.0,0.0,0.0,0.0,0.0,0.0,0.0,0.0,-0.0157079632679,-0.0206821516361,-0.00366519142919,0.000169,0.0,0.0,0.0,0.000169,0.0,0.0,0.0,0.000169,-0.08829,-0.21582,9.85905,0.006889,0.0,0.0,0.0,0.006889,0.0,0.0,0.0,0.006889
1349442729891653376,192,1349442729894016981,auk,-0.0127270246767,0.000962112291551,0.361491446298,0.932288062477,0.0,0.0,0.0,0.0,0.0,0.0,0.0,0.0,0.0,-0.00863937979737,-0.00890117918517,-0.0141371669412,0.000169,0.0,0.0,0.0,0.000169,0.0,0.0,0.0,0.000169,-0.10791,-0.22563,9.86886,0.006889,0.0,0.0,0.0,0.006889,0.0,0.0,0.0,0.006889
1349442729911561616,193,1349442729914016962,auk,-0.0128400941831,0.00100968661025,0.361655007553,0.932223024832,0.0,0.0,0.0,0.0,0.0,0.0,0.0,0.0,0.0,0.0102101761242,0.000523598775598,0.00942477796077,0.000169,0.0,0.0,0.0,0.000169,0.0,0.0,0.0,0.000169,-0.12753,-0.24525,9.89829,0.006889,0.0,0.0,0.0,0.006889,0.0,0.0,0.0,0.006889
1349442729931494651,194,1349442729934015036,auk,-0.0127904878933,0.00112037057493,0.361818375773,0.932160185345,0.0,0.0,0.0,0.0,0.0,0.0,0.0,0.0,0.0,-0.00314159265359,-0.00863937979737,-0.0123045712266,0.000169,0.0,0.0,0.0,0.000169,0.0,0.0,0.0,0.000169,-0.10791,-0.21582,9.89829,0.006889,0.0,0.0,0.0,0.006889,0.0,0.0,0.0,0.006889
1349442729951437525,195,1349442729954015017,auk,-0.012759105015,0.00103679325497,0.361980303637,0.932097843618,0.0,0.0,0.0,0.0,0.0,0.0,0.0,0.0,0.0,0.00994837673637,0.0138753675534,-0.000523598775598,0.000169,0.0,0.0,0.0,0.000169,0.0,0.0,0.0,0.000169,-0.08829,-0.22563,9.89829,0.006889,0.0,0.0,0.0,0.006889,0.0,0.0,0.0,0.006889
1349442729971141057,196,1349442729974014997,auk,-0.0127276932562,0.000953226918428,0.362142218002,0.932035466666,0.0,0.0,0.0,0.0,0.0,0.0,0.0,0.0,0.0,-0.0157079632679,0.00445058959259,-0.00418879020479,0.000169,0.0,0.0,0.0,0.000169,0.0,0.0,0.0,0.000169,-0.0981,-0.21582,9.89829,0.006889,0.0,0.0,0.0,0.006889,0.0,0.0,0.0,0.006889
1349442729991697300,197,1349442729994012833,auk,-0.0126781362482,0.00106395655211,0.362305553635,0.931972541797,0.0,0.0,0.0,0.0,0.0,0.0,0.0,0.0,0.0,0.00680678408278,0.00549778714378,0.0175405589825,0.000169,0.0,0.0,0.0,0.000169,0.0,0.0,0.0,0.000169,-0.11772,-0.20601,9.84924,0.006889,0.0,0.0,0.0,0.006889,0.0,0.0,0.0,0.006889
1349442730011679847,198,1349442730014013052,auk,-0.0126467007696,0.000980415313542,0.362467453508,0.931910105586,0.0,0.0,0.0,0.0,0.0,0.0,0.0,0.0,0.0,-0.00706858347058,-0.000523598775598,-0.00890117918517,0.000169,0.0,0.0,0.0,0.000169,0.0,0.0,0.0,0.000169,-0.07848,-0.23544,9.84924,0.006889,0.0,0.0,0.0,0.006889,0.0,0.0,0.0,0.006889
1349442730031649895,199,1349442730034013033,auk,-0.012696555419,0.000865239692363,0.362629416749,0.931846529719,0.0,0.0,0.0,0.0,0.0,0.0,0.0,0.0,0.0,0.00759218224618,-0.00890117918517,0.00863937979737,0.000169,0.0,0.0,0.0,0.000169,0.0,0.0,0.0,0.000169,-0.08829,-0.23544,9.86886,0.006889,0.0,0.0,0.0,0.006889,0.0,0.0,0.0,0.006889
1349442730052455825,200,1349442730054010868,auk,-0.012778019616,0.000831364130207,0.362792123058,0.931782113209,0.0,0.0,0.0,0.0,0.0,0.0,0.0,0.0,0.0,-0.00654498469498,-0.0167551608191,0.0222529479629,0.000169,0.0,0.0,0.0,0.000169,0.0,0.0,0.0,0.000169,-0.11772,-0.22563,9.89829,0.006889,0.0,0.0,0.0,0.006889,0.0,0.0,0.0,0.006889
1349442730071324170,201,1349442730074010849,auk,-0.0128911357195,0.000878771861492,0.36295559329,0.931716847373,0.0,0.0,0.0,0.0,0.0,0.0,0.0,0.0,0.0,-0.0123045712266,-0.0010471975512,-0.00811578102177,0.000169,0.0,0.0,0.0,0.000169,0.0,0.0,0.0,0.000169,-0.11772,-0.22563,9.9081,0.006889,0.0,0.0,0.0,0.006889,0.0,0.0,0.0,0.006889
1349442730091382848,202,1349442730094008923,auk,-0.0129229664352,0.000957828095071,0.363118978249,0.93165266443,0.0,0.0,0.0,0.0,0.0,0.0,0.0,0.0,0.0,-0.00418879020479,0.000785398163397,-0.00471238898038,0.000169,0.0,0.0,0.0,0.000169,0.0,0.0,0.0,0.000169,-0.13734,-0.22563,9.87867,0.006889,0.0,0.0,0.0,0.006889,0.0,0.0,0.0,0.006889
1349442730111239747,203,1349442730114008904,auk,-0.0127922319869,0.00110027794959,0.363282162591,0.931590692597,0.0,0.0,0.0,0.0,0.0,0.0,0.0,0.0,0.0,-0.00287979326579,-0.00183259571459,-0.00445058959259,0.000169,0.0,0.0,0.0,0.000169,0.0,0.0,0.0,0.000169,-0.13734,-0.18639,9.88848,0.006889,0.0,0.0,0.0,0.006889,0.0,0.0,0.0,0.006889
1349442730131846973,204,1349442730134008884,auk,-0.0127428386254,0.00121105709625,0.363445401214,0.931527559303,0.0,0.0,0.0,0.0,0.0,0.0,0.0,0.0,0.0,0.00366519142919,-0.0115191730632,0.000261799387799,0.000169,0.0,0.0,0.0,0.000169,0.0,0.0,0.0,0.000169,-0.12753,-0.17658,9.85905,0.006889,0.0,0.0,0.0,0.006889,0.0,0.0,0.0,0.006889
1349442730151605889,205,1349442730154006958,auk,-0.0126617641742,0.00124056381027,0.363607871032,0.93146522042,0.0,0.0,0.0,0.0,0.0,0.0,0.0,0.0,0.0,0.00157079632679,-0.0149225651046,0.0,0.000169,0.0,0.0,0.0,0.000169,0.0,0.0,0.0,0.000169,-0.08829,-0.22563,9.84924,0.006889,0.0,0.0,0.0,0.006889,0.0,0.0,0.0,0.006889
1349442730171575796,206,1349442730174006939,auk,-0.0127116244298,0.00112421541537,0.363851074424,0.931369715196,0.0,0.0,0.0,0.0,0.0,0.0,0.0,0.0,0.0,-0.00340339204139,0.00445058959259,-0.00183259571459,0.000169,0.0,0.0,0.0,0.000169,0.0,0.0,0.0,0.000169,-0.07848,-0.21582,9.89829,0.006889,0.0,0.0,0.0,0.006889,0.0,0.0,0.0,0.006889
1349442730191588235,207,1349442730194005013,auk,-0.0126305486031,0.00115376297822,0.364013524264,0.931307302788,0.0,0.0,0.0,0.0,0.0,0.0,0.0,0.0,0.0,0.00733038285838,0.00445058959259,0.000523598775598,0.000169,0.0,0.0,0.0,0.000169,0.0,0.0,0.0,0.000169,-0.14715,-0.20601,9.9081,0.006889,0.0,0.0,0.0,0.006889,0.0,0.0,0.0,0.006889
1349442730211645933,208,1349442730214004993,auk,-0.0127755555367,0.00128231888128,0.364177653769,0.931240987787,0.0,0.0,0.0,0.0,0.0,0.0,0.0,0.0,0.0,0.001308996939,0.0010471975512,-0.00654498469498,0.000169,0.0,0.0,0.0,0.000169,0.0,0.0,0.0,0.000169,-0.15696,-0.23544,9.9081,0.006889,0.0,0.0,0.0,0.006889,0.0,0.0,0.0,0.006889
1349442730231611372,209,1349442730234004974,auk,-0.0128888233516,0.00132955916182,0.36434103962,0.931175449286,0.0,0.0,0.0,0.0,0.0,0.0,0.0,0.0,0.0,-0.000261799387799,0.00759218224618,-0.00628318530718,0.000169,0.0,0.0,0.0,0.000169,0.0,0.0,0.0,0.000169,-0.12753,-0.22563,9.88848,0.006889,0.0,0.0,0.0,0.006889,0.0,0.0,0.0,0.006889
1349442730257085951,210,1349442730254003048,auk,-0.0130019875034,0.00137789443403,0.364423166266,0.931141667856,0.0,0.0,0.0,0.0,0.0,0.0,0.0,0.0,0.0,-0.0010471975512,0.00837758040957,-0.0193731546971,0.000169,0.0,0.0,0.0,0.000169,0.0,0.0,0.0,0.000169,-0.12753,-0.24525,9.87867,0.006889,0.0,0.0,0.0,0.006889,0.0,0.0,0.0,0.006889
1349442730271724680,211,1349442730274003029,auk,-0.013115284251,0.00142506529393,0.364586551522,0.931076046817,0.0,0.0,0.0,0.0,0.0,0.0,0.0,0.0,0.0,-0.00340339204139,0.00157079632679,-0.000523598775598,0.000169,0.0,0.0,0.0,0.000169,0.0,0.0,0.0,0.000169,-0.11772,-0.24525,9.9081,0.006889,0.0,0.0,0.0,0.006889,0.0,0.0,0.0,0.006889
1349442730291719523,212,1349442730294003010,auk,-0.0130837139711,0.0013415255123,0.364748292274,0.931013265223,0.0,0.0,0.0,0.0,0.0,0.0,0.0,0.0,0.0,0.00811578102177,-0.00314159265359,0.00183259571459,0.000169,0.0,0.0,0.0,0.000169,0.0,0.0,0.0,0.000169,-0.08829,-0.20601,9.93753,0.006889,0.0,0.0,0.0,0.006889,0.0,0.0,0.0,0.006889
1349442730311685381,213,1349442730314000845,auk,-0.0129708740292,0.00128984118818,0.364909908268,0.93095158391,0.0,0.0,0.0,0.0,0.0,0.0,0.0,0.0,0.0,0.0157079632679,-0.00157079632679,0.00418879020479,0.000169,0.0,0.0,0.0,0.000169,0.0,0.0,0.0,0.000169,-0.06867,-0.20601,9.9081,0.006889,0.0,0.0,0.0,0.006889,0.0,0.0,0.0,0.006889
1349442730331346232,214,1349442730334000826,auk,-0.0129392515174,0.00120633763878,0.365071629124,0.930888729188,0.0,0.0,0.0,0.0,0.0,0.0,0.0,0.0,0.0,0.0167551608191,0.000261799387799,-0.00340339204139,0.000169,0.0,0.0,0.0,0.000169,0.0,0.0,0.0,0.000169,-0.07848,-0.22563,9.88848,0.006889,0.0,0.0,0.0,0.006889,0.0,0.0,0.0,0.006889
1349442730351238191,215,1349442730353998899,auk,-0.0127770020599,0.0012678246512,0.365233878581,0.930827242175,0.0,0.0,0.0,0.0,0.0,0.0,0.0,0.0,0.0,0.00183259571459,0.00287979326579,-0.001308996939,0.000169,0.0,0.0,0.0,0.000169,0.0,0.0,0.0,0.000169,-0.11772,-0.20601,9.89829,0.006889,0.0,0.0,0.0,0.006889,0.0,0.0,0.0,0.006889
1349442730371340660,216,1349442730373998880,auk,-0.0127276338442,0.00138093163537,0.365234500426,0.930827513594,0.0,0.0,0.0,0.0,0.0,0.0,0.0,0.0,0.0,-0.00445058959259,-0.00916297857297,0.00654498469498,0.000169,0.0,0.0,0.0,0.000169,0.0,0.0,0.0,0.000169,-0.13734,-0.20601,9.88848,0.006889,0.0,0.0,0.0,0.006889,0.0,0.0,0.0,0.006889
1349442730391274736,217,1349442730393998861,auk,-0.0128404756537,0.00143253426066,0.365072892457,0.930889280862,0.0,0.0,0.0,0.0,0.0,0.0,0.0,0.0,0.0,0.0102101761242,-0.00759218224618,-0.00287979326579,0.000169,0.0,0.0,0.0,0.000169,0.0,0.0,0.0,0.000169,-0.13734,-0.23544,9.9081,0.006889,0.0,0.0,0.0,0.006889,0.0,0.0,0.0,0.006889
1349442730411223205,218,1349442730413996935,auk,-0.0127909527206,0.00154674896061,0.364992257687,0.930921398897,0.0,0.0,0.0,0.0,0.0,0.0,0.0,0.0,0.0,-0.00392699081699,-0.00916297857297,0.00235619449019,0.000169,0.0,0.0,0.0,0.000169,0.0,0.0,0.0,0.000169,-0.12753,-0.1962,9.87867,0.006889,0.0,0.0,0.0,0.006889,0.0,0.0,0.0,0.006889
1349442730431617689,219,1349442730433996916,auk,-0.0127730909839,0.00174331525391,0.364831073982,0.930984477022,0.0,0.0,0.0,0.0,0.0,0.0,0.0,0.0,0.0,-0.00759218224618,0.00261799387799,-0.00261799387799,0.000169,0.0,0.0,0.0,0.000169,0.0,0.0,0.0,0.000169,-0.12753,-0.18639,9.87867,0.006889,0.0,0.0,0.0,0.006889,0.0,0.0,0.0,0.006889
1349442730451660308,220,1349442730453994989,auk,-0.012723349067,0.00185862171668,0.364669133586,0.931048379475,0.0,0.0,0.0,0.0,0.0,0.0,0.0,0.0,0.0,-0.00654498469498,-0.001308996939,-0.00209439510239,0.000169,0.0,0.0,0.0,0.000169,0.0,0.0,0.0,0.000169,-0.13734,-0.21582,9.88848,0.006889,0.0,0.0,0.0,0.006889,0.0,0.0,0.0,0.006889
1349442730471576998,221,1349442730473994970,auk,-0.0128042792855,0.0018290331205,0.364506790437,0.931110898226,0.0,0.0,0.0,0.0,0.0,0.0,0.0,0.0,0.0,-0.00759218224618,-0.0107337748998,-0.001308996939,0.000169,0.0,0.0,0.0,0.000169,0.0,0.0,0.0,0.000169,-0.11772,-0.22563,9.89829,0.006889,0.0,0.0,0.0,0.006889,0.0,0.0,0.0,0.006889
1349442730491502903,222,1349442730493994951,auk,-0.0128852201201,0.00179947281794,0.364344433798,0.931173381579,0.0,0.0,0.0,0.0,0.0,0.0,0.0,0.0,0.0,0.0,-0.00445058959259,0.0138753675534,0.000169,0.0,0.0,0.0,0.000169,0.0,0.0,0.0,0.000169,-0.14715,-0.23544,9.91791,0.006889,0.0,0.0,0.0,0.006889,0.0,0.0,0.0,0.006889
1349442730511725710,223,1349442730513993025,auk,-0.012997940556,0.00185121109024,0.364182788957,0.931234944999,0.0,0.0,0.0,0.0,0.0,0.0,0.0,0.0,0.0,-0.0010471975512,-0.0159697626557,-0.000523598775598,0.000169,0.0,0.0,0.0,0.000169,0.0,0.0,0.0,0.000169,-0.15696,-0.22563,9.89829,0.006889,0.0,0.0,0.0,0.006889,0.0,0.0,0.0,0.006889
1349442730531717124,224,1349442730533993006,auk,-0.0130788883362,0.00182171286388,0.364020412612,0.9312973549,0.0,0.0,0.0,0.0,0.0,0.0,0.0,0.0,0.0,0.00157079632679,0.00314159265359,0.0123045712266,0.000169,0.0,0.0,0.0,0.000169,0.0,0.0,0.0,0.000169,-0.10791,-0.24525,9.86886,0.006889,0.0,0.0,0.0,0.006889,0.0,0.0,0.0,0.006889
1349442730551802273,225,1349442730553992987,auk,-0.0131600030597,0.00179109451699,0.363939297889,0.931327973247,0.0,0.0,0.0,0.0,0.0,0.0,0.0,0.0,0.0,-0.00602138591938,0.00549778714378,-0.00628318530718,0.000169,0.0,0.0,0.0,0.000169,0.0,0.0,0.0,0.000169,-0.11772,-0.25506,9.87867,0.006889,0.0,0.0,0.0,0.006889,0.0,0.0,0.0,0.006889
1349442730571684246,226,1349442730573990822,auk,-0.0131917505205,0.00187237296803,0.363940034812,0.931327076273,0.0,0.0,0.0,0.0,0.0,0.0,0.0,0.0,0.0,0.00916297857297,0.00628318530718,0.00680678408278,0.000169,0.0,0.0,0.0,0.000169,0.0,0.0,0.0,0.000169,-0.13734,-0.20601,9.89829,0.006889,0.0,0.0,0.0,0.006889,0.0,0.0,0.0,0.006889
1349442730591683770,227,1349442730593991041,auk,-0.0131101443174,0.00190642090116,0.36377731705,0.931391729229,0.0,0.0,0.0,0.0,0.0,0.0,0.0,0.0,0.0,-0.00183259571459,0.00523598775598,0.00183259571459,0.000169,0.0,0.0,0.0,0.000169,0.0,0.0,0.0,0.000169,-0.12753,-0.20601,9.85905,0.006889,0.0,0.0,0.0,0.006889,0.0,0.0,0.0,0.006889
1349442730611439675,228,1349442730613988876,auk,-0.0130602456779,0.00202173003058,0.363615305316,0.931455448387,0.0,0.0,0.0,0.0,0.0,0.0,0.0,0.0,0.0,0.000785398163397,0.00680678408278,-0.0172787595947,0.000169,0.0,0.0,0.0,0.000169,0.0,0.0,0.0,0.000169,-0.12753,-0.20601,9.82962,0.006889,0.0,0.0,0.0,0.006889,0.0,0.0,0.0,0.006889
1349442730631799520,229,1349442730633988857,auk,-0.0128659565353,0.00200390307718,0.363614240827,0.931458606382,0.0,0.0,0.0,0.0,0.0,0.0,0.0,0.0,0.0,0.00968657734857,-0.010471975512,-0.000785398163397,0.000169,0.0,0.0,0.0,0.000169,0.0,0.0,0.0,0.000169,-0.0981,-0.1962,9.87867,0.006889,0.0,0.0,0.0,0.006889,0.0,0.0,0.0,0.006889
1349442730653515291,230,1349442730653988838,auk,-0.0127526106214,0.00195657033629,0.36345078672,0.931524056795,0.0,0.0,0.0,0.0,0.0,0.0,0.0,0.0,0.0,-0.00575958653158,0.0,-0.000523598775598,0.000169,0.0,0.0,0.0,0.000169,0.0,0.0,0.0,0.000169,-0.0981,-0.20601,9.9081,0.006889,0.0,0.0,0.0,0.006889,0.0,0.0,0.0,0.006889
1349442730671564945,231,1349442730673986912,auk,-0.0126392812776,0.00190919794017,0.363287329498,0.931589458806,0.0,0.0,0.0,0.0,0.0,0.0,0.0,0.0,0.0,0.0128281700022,0.00549778714378,0.00235619449019,0.000169,0.0,0.0,0.0,0.000169,0.0,0.0,0.0,0.000169,-0.11772,-0.1962,9.88848,0.006889,0.0,0.0,0.0,0.006889,0.0,0.0,0.0,0.006889
1349442730691345225,232,1349442730693986893,auk,-0.0125578152895,0.00194199661652,0.36320586351,0.931622257482,0.0,0.0,0.0,0.0,0.0,0.0,0.0,0.0,0.0,-0.00654498469498,0.000261799387799,-0.0136135681656,0.000169,0.0,0.0,0.0,0.000169,0.0,0.0,0.0,0.000169,-0.13734,-0.1962,9.87867,0.006889,0.0,0.0,0.0,0.006889,0.0,0.0,0.0,0.006889
1349442730711205409,233,1349442730713984966,auk,-0.012507661766,0.00205827073985,0.36296246565,0.93171753791,0.0,0.0,0.0,0.0,0.0,0.0,0.0,0.0,0.0,-0.00497418836818,0.00445058959259,-0.0178023583703,0.000169,0.0,0.0,0.0,0.000169,0.0,0.0,0.0,0.000169,-0.11772,-0.21582,9.87867,0.006889,0.0,0.0,0.0,0.006889,0.0,0.0,0.0,0.006889
1349442730731682722,234,1349442730733984947,auk,-0.0125571366398,0.00194638000259,0.362880643873,0.931748983486,0.0,0.0,0.0,0.0,0.0,0.0,0.0,0.0,0.0,-0.00680678408278,-0.0178023583703,0.0133517687778,0.000169,0.0,0.0,0.0,0.000169,0.0,0.0,0.0,0.000169,-0.0981,-0.23544,9.87867,0.006889,0.0,0.0,0.0,0.006889,0.0,0.0,0.0,0.006889
1349442730752885919,235,1349442730753984928,auk,-0.0126071109354,0.00183119753694,0.363042726761,0.931685400774,0.0,0.0,0.0,0.0,0.0,0.0,0.0,0.0,0.0,0.00733038285838,0.00445058959259,-0.00445058959259,0.000169,0.0,0.0,0.0,0.000169,0.0,0.0,0.0,0.000169,-0.08829,-0.23544,9.91791,0.006889,0.0,0.0,0.0,0.006889,0.0,0.0,0.0,0.006889
1349442730771609480,236,1349442730773983002,auk,-0.0126570453643,0.00171599778435,0.363204778785,0.931621781208,0.0,0.0,0.0,0.0,0.0,0.0,0.0,0.0,0.0,0.00942477796077,-0.00261799387799,-0.00575958653158,0.000169,0.0,0.0,0.0,0.000169,0.0,0.0,0.0,0.000169,-0.08829,-0.23544,9.89829,0.006889,0.0,0.0,0.0,0.006889,0.0,0.0,0.0,0.006889
1349442730791528547,237,1349442730793982983,auk,-0.0125126534132,0.00158290193066,0.363365806274,0.931561172847,0.0,0.0,0.0,0.0,0.0,0.0,0.0,0.0,0.0,-0.00157079632679,-0.0240855436775,0.00811578102177,0.000169,0.0,0.0,0.0,0.000169,0.0,0.0,0.0,0.000169,-0.08829,-0.1962,9.86886,0.006889,0.0,0.0,0.0,0.006889,0.0,0.0,0.0,0.006889
1349442730811417787,238,1349442730813982964,auk,-0.0123993925968,0.00153547735109,0.363202368378,0.931626500791,0.0,0.0,0.0,0.0,0.0,0.0,0.0,0.0,0.0,-0.00183259571459,0.00497418836818,0.0010471975512,0.000169,0.0,0.0,0.0,0.000169,0.0,0.0,0.0,0.000169,-0.0981,-0.20601,9.83943,0.006889,0.0,0.0,0.0,0.006889,0.0,0.0,0.0,0.006889
1349442730831777973,239,1349442730833981037,auk,-0.0123991244166,0.00153764142996,0.363039763349,0.931689877373,0.0,0.0,0.0,0.0,0.0,0.0,0.0,0.0,0.0,0.00759218224618,-0.00392699081699,0.00497418836818,0.000169,0.0,0.0,0.0,0.000169,0.0,0.0,0.0,0.000169,-0.12753,-0.20601,9.82962,0.006889,0.0,0.0,0.0,0.006889,0.0,0.0,0.0,0.006889
1349442730851439588,240,1349442730853981018,auk,-0.0122995469435,0.00176576954704,0.362878251538,0.931753710893,0.0,0.0,0.0,0.0,0.0,0.0,0.0,0.0,0.0,-0.00157079632679,-0.00183259571459,-0.011780972451,0.000169,0.0,0.0,0.0,0.000169,0.0,0.0,0.0,0.000169,-0.13734,-0.20601,9.86886,0.006889,0.0,0.0,0.0,0.006889,0.0,0.0,0.0,0.006889
1349442730871360538,241,1349442730873978853,auk,-0.0124935130991,0.00178593078306,0.362716626817,0.931814021794,0.0,0.0,0.0,0.0,0.0,0.0,0.0,0.0,0.0,-0.0102101761242,-0.00287979326579,0.00706858347058,0.000169,0.0,0.0,0.0,0.000169,0.0,0.0,0.0,0.000169,-0.14715,-0.22563,9.9081,0.006889,0.0,0.0,0.0,0.006889,0.0,0.0,0.0,0.006889
1349442730891700616,242,1349442730893978834,auk,-0.0126061503945,0.00183779835347,0.362554847683,0.931875361779,0.0,0.0,0.0,0.0,0.0,0.0,0.0,0.0,0.0,0.0123045712266,-0.0167551608191,-0.00418879020479,0.000169,0.0,0.0,0.0,0.000169,0.0,0.0,0.0,0.000169,-0.14715,-0.21582,9.9081,0.006889,0.0,0.0,0.0,0.006889,0.0,0.0,0.0,0.006889
1349442730911544735,243,1349442730913979053,auk,-0.012556286176,0.00195185890161,0.362474057154,0.931907231335,0.0,0.0,0.0,0.0,0.0,0.0,0.0,0.0,0.0,0.00157079632679,-0.00235619449019,-0.011780972451,0.000169,0.0,0.0,0.0,0.000169,0.0,0.0,0.0,0.000169,-0.13734,-0.20601,9.87867,0.006889,0.0,0.0,0.0,0.006889,0.0,0.0,0.0,0.006889
1349442730931646014,244,1349442730933976889,auk,-0.0125067624853,0.00206372804073,0.362555892643,0.931875821464,0.0,0.0,0.0,0.0,0.0,0.0,0.0,0.0,0.0,-0.00261799387799,0.00340339204139,-0.00628318530718,0.000169,0.0,0.0,0.0,0.000169,0.0,0.0,0.0,0.000169,-0.12753,-0.18639,9.85905,0.006889,0.0,0.0,0.0,0.006889,0.0,0.0,0.0,0.006889
1349442730951507528,245,1349442730953976870,auk,-0.0125387641415,0.00214286560166,0.362719211458,0.931811655411,0.0,0.0,0.0,0.0,0.0,0.0,0.0,0.0,0.0,0.00471238898038,-0.00445058959259,-0.00471238898038,0.000169,0.0,0.0,0.0,0.000169,0.0,0.0,0.0,0.000169,-0.13734,-0.21582,9.87867,0.006889,0.0,0.0,0.0,0.006889,0.0,0.0,0.0,0.006889
1349442730971551610,246,1349442730973974943,auk,-0.0124896799757,0.0022525695794,0.362963629886,0.931716876097,0.0,0.0,0.0,0.0,0.0,0.0,0.0,0.0,0.0,0.00497418836818,-0.000785398163397,0.00628318530718,0.000169,0.0,0.0,0.0,0.000169,0.0,0.0,0.0,0.000169,-0.13734,-0.20601,9.89829,0.006889,0.0,0.0,0.0,0.006889,0.0,0.0,0.0,0.006889
1349442730991283708,247,1349442730993974924,auk,-0.0126347287892,0.00238131409027,0.363127782691,0.931650635383,0.0,0.0,0.0,0.0,0.0,0.0,0.0,0.0,0.0,0.00314159265359,0.0123045712266,0.0185877565337,0.000169,0.0,0.0,0.0,0.000169,0.0,0.0,0.0,0.000169,-0.13734,-0.23544,9.84924,0.006889,0.0,0.0,0.0,0.006889,0.0,0.0,0.0,0.006889
1349442731011288467,248,1349442731013974905,auk,-0.0127164404896,0.00234740580238,0.363290587103,0.931586137268,0.0,0.0,0.0,0.0,0.0,0.0,0.0,0.0,0.0,0.00340339204139,0.00549778714378,0.00261799387799,0.000169,0.0,0.0,0.0,0.000169,0.0,0.0,0.0,0.000169,-0.11772,-0.25506,9.86886,0.006889,0.0,0.0,0.0,0.006889,0.0,0.0,0.0,0.006889
1349442731031810901,249,1349442731033972979,auk,-0.012766435566,0.00223217365873,0.363452690771,0.931522504879,0.0,0.0,0.0,0.0,0.0,0.0,0.0,0.0,0.0,-0.00837758040957,0.011780972451,-0.00863937979737,0.000169,0.0,0.0,0.0,0.000169,0.0,0.0,0.0,0.000169,-0.11772,-0.22563,9.9081,0.006889,0.0,0.0,0.0,0.006889,0.0,0.0,0.0,0.006889
1349442731057381852,250,1349442731053972960,auk,-0.0128158361183,0.00212027947521,0.363370895757,0.931553997832,0.0,0.0,0.0,0.0,0.0,0.0,0.0,0.0,0.0,0.00340339204139,-0.0128281700022,-0.00916297857297,0.000169,0.0,0.0,0.0,0.000169,0.0,0.0,0.0,0.000169,-0.12753,-0.22563,9.9081,0.006889,0.0,0.0,0.0,0.006889,0.0,0.0,0.0,0.006889
1349442731071530427,251,1349442731073971033,auk,-0.0128967647709,0.0020908203164,0.36320848722,0.931616281921,0.0,0.0,0.0,0.0,0.0,0.0,0.0,0.0,0.0,-0.00890117918517,0.00942477796077,0.00890117918517,0.000169,0.0,0.0,0.0,0.000169,0.0,0.0,0.0,0.000169,-0.08829,-0.24525,9.87867,0.006889,0.0,0.0,0.0,0.006889,0.0,0.0,0.0,0.006889
1349442731091583095,252,1349442731093971014,auk,-0.0130273387554,0.00194839870131,0.363045522926,0.931678292369,0.0,0.0,0.0,0.0,0.0,0.0,0.0,0.0,0.0,-0.0151843644924,0.00314159265359,-0.0167551608191,0.000169,0.0,0.0,0.0,0.000169,0.0,0.0,0.0,0.000169,-0.07848,-0.23544,9.86886,0.006889,0.0,0.0,0.0,0.006889,0.0,0.0,0.0,0.006889
1349442731111448727,253,1349442731113970995,auk,-0.0130449975231,0.00175637588365,0.362881613253,0.931742280862,0.0,0.0,0.0,0.0,0.0,0.0,0.0,0.0,0.0,0.01308996939,0.0136135681656,0.00235619449019,0.000169,0.0,0.0,0.0,0.000169,0.0,0.0,0.0,0.000169,-0.10791,-0.23544,9.87867,0.006889,0.0,0.0,0.0,0.006889,0.0,0.0,0.0,0.006889
1349442731131805425,254,1349442731133968830,auk,-0.0130943648674,0.00164567946316,0.362718396489,0.931805341365,0.0,0.0,0.0,0.0,0.0,0.0,0.0,0.0,0.0,-0.0180641577581,0.0185877565337,-0.00340339204139,0.000169,0.0,0.0,0.0,0.000169,0.0,0.0,0.0,0.000169,-0.11772,-0.25506,9.87867,0.006889,0.0,0.0,0.0,0.006889,0.0,0.0,0.0,0.006889
1349442731151631454,255,1349442731153969049,auk,-0.0132883458936,0.00166601224952,0.362556800325,0.931865446727,0.0,0.0,0.0,0.0,0.0,0.0,0.0,0.0,0.0,-0.00445058959259,0.0136135681656,0.011780972451,0.000169,0.0,0.0,0.0,0.000169,0.0,0.0,0.0,0.000169,-0.12753,-0.23544,9.92772,0.006889,0.0,0.0,0.0,0.006889,0.0,0.0,0.0,0.006889
1349442731171270998,256,1349442731173966885,auk,-0.0133379040491,0.00155421186204,0.362474857307,0.931896808966,0.0,0.0,0.0,0.0,0.0,0.0,0.0,0.0,0.0,-0.00261799387799,0.0,0.00733038285838,0.000169,0.0,0.0,0.0,0.000169,0.0,0.0,0.0,0.000169,-0.10791,-0.22563,9.92772,0.006889,0.0,0.0,0.0,0.006889,0.0,0.0,0.0,0.006889
1349442731191612605,257,1349442731193966866,auk,-0.0132246979749,0.0015068237953,0.362311306937,0.93196209886,0.0,0.0,0.0,0.0,0.0,0.0,0.0,0.0,0.0,-0.01308996939,-0.011780972451,-0.011780972451,0.000169,0.0,0.0,0.0,0.000169,0.0,0.0,0.0,0.000169,-0.0981,-0.21582,9.88848,0.006889,0.0,0.0,0.0,0.006889,0.0,0.0,0.0,0.006889
1349442731211487394,258,1349442731213966846,auk,-0.0131117630106,0.00145710769282,0.36231041744,0.93196411944,0.0,0.0,0.0,0.0,0.0,0.0,0.0,0.0,0.0,-0.00418879020479,-0.00445058959259,-0.00418879020479,0.000169,0.0,0.0,0.0,0.000169,0.0,0.0,0.0,0.000169,-0.07848,-0.20601,9.84924,0.006889,0.0,0.0,0.0,0.006889,0.0,0.0,0.0,0.006889
1349442731231668295,259,1349442731233964920,auk,-0.0129988276954,0.00140739143586,0.362309536619,0.931966120308,0.0,0.0,0.0,0.0,0.0,0.0,0.0,0.0,0.0,-0.010471975512,0.00445058959259,-0.0010471975512,0.000169,0.0,0.0,0.0,0.000169,0.0,0.0,0.0,0.000169,-0.0981,-0.21582,9.85905,0.006889,0.0,0.0,0.0,0.006889,0.0,0.0,0.0,0.006889
1349442731253538904,260,1349442731253964901,auk,-0.0129174982594,0.00143900890209,0.362309412422,0.931967251121,0.0,0.0,0.0,0.0,0.0,0.0,0.0,0.0,0.0,-0.00471238898038,-0.0180641577581,-0.00471238898038,0.000169,0.0,0.0,0.0,0.000169,0.0,0.0,0.0,0.000169,-0.16677,-0.22563,9.89829,0.006889,0.0,0.0,0.0,0.006889,0.0,0.0,0.0,0.006889
1349442731271643028,261,1349442731273964882,auk,-0.0130617654771,0.00157233875633,0.362148374439,0.932027613821,0.0,0.0,0.0,0.0,0.0,0.0,0.0,0.0,0.0,-0.0112573736754,0.000261799387799,0.00575958653158,0.000169,0.0,0.0,0.0,0.000169,0.0,0.0,0.0,0.000169,-0.16677,-0.23544,9.92772,0.006889,0.0,0.0,0.0,0.006889,0.0,0.0,0.0,0.006889
1349442731291308491,262,1349442731293962955,auk,-0.0131744084565,0.00162437396169,0.361986589621,0.932088786171,0.0,0.0,0.0,0.0,0.0,0.0,0.0,0.0,0.0,0.00785398163397,-0.010471975512,0.0,0.000169,0.0,0.0,0.0,0.000169,0.0,0.0,0.0,0.000169,-0.14715,-0.23544,9.91791,0.006889,0.0,0.0,0.0,0.006889,0.0,0.0,0.0,0.006889
1349442731311266244,263,1349442731313962936,auk,-0.0132873257054,0.00167412932675,0.361987488507,0.932086746194,0.0,0.0,0.0,0.0,0.0,0.0,0.0,0.0,0.0,-0.00628318530718,0.0010471975512,0.00602138591938,0.000169,0.0,0.0,0.0,0.000169,0.0,0.0,0.0,0.000169,-0.13734,-0.21582,9.86886,0.006889,0.0,0.0,0.0,0.006889,0.0,0.0,0.0,0.006889
1349442731331709545,264,1349442731333962917,auk,-0.0131745501597,0.00162322427149,0.362067928334,0.932057193333,0.0,0.0,0.0,0.0,0.0,0.0,0.0,0.0,0.0,-0.0136135681656,0.00968657734857,0.0167551608191,0.000169,0.0,0.0,0.0,0.000169,0.0,0.0,0.0,0.000169,-0.0981,-0.18639,9.85905,0.006889,0.0,0.0,0.0,0.006889,0.0,0.0,0.0,0.006889
1349442731351833173,265,1349442731353960991,auk,-0.0129801505361,0.00160620764597,0.361985560629,0.932091942721,0.0,0.0,0.0,0.0,0.0,0.0,0.0,0.0,0.0,0.00340339204139,0.0010471975512,-0.000785398163397,0.000169,0.0,0.0,0.0,0.000169,0.0,0.0,0.0,0.000169,-0.08829,-0.1962,9.84924,0.006889,0.0,0.0,0.0,0.006889,0.0,0.0,0.0,0.006889
1349442731371511904,266,1349442731373960972,auk,-0.0129483065632,0.00152712269378,0.361822131503,0.932155971074,0.0,0.0,0.0,0.0,0.0,0.0,0.0,0.0,0.0,0.0172787595947,0.00209439510239,-0.0154461638801,0.000169,0.0,0.0,0.0,0.000169,0.0,0.0,0.0,0.000169,-0.10791,-0.22563,9.85905,0.006889,0.0,0.0,0.0,0.006889,0.0,0.0,0.0,0.006889
1349442731391683096,267,1349442731393960953,auk,-0.0129978419832,0.00141646598584,0.361658813287,0.932218832946,0.0,0.0,0.0,0.0,0.0,0.0,0.0,0.0,0.0,0.00445058959259,-0.0285361332701,-0.000523598775598,0.000169,0.0,0.0,0.0,0.000169,0.0,0.0,0.0,0.000169,-0.11772,-0.22563,9.85905,0.006889,0.0,0.0,0.0,0.006889,0.0,0.0,0.0,0.006889
1349442731411372864,268,1349442731413959026,auk,-0.012947772708,0.00153164241229,0.361496725649,0.932282214031,0.0,0.0,0.0,0.0,0.0,0.0,0.0,0.0,0.0,0.00183259571459,-0.00392699081699,-0.0010471975512,0.000169,0.0,0.0,0.0,0.000169,0.0,0.0,0.0,0.000169,-0.14715,-0.1962,9.85905,0.006889,0.0,0.0,0.0,0.006889,0.0,0.0,0.0,0.006889
1349442731431780545,269,1349442731433959007,auk,-0.012897663579,0.0016468015076,0.3613346072,0.932345558234,0.0,0.0,0.0,0.0,0.0,0.0,0.0,0.0,0.0,0.00392699081699,0.0136135681656,0.00157079632679,0.000169,0.0,0.0,0.0,0.000169,0.0,0.0,0.0,0.000169,-0.14715,-0.21582,9.87867,0.006889,0.0,0.0,0.0,0.006889,0.0,0.0,0.0,0.006889
1349442731453660868,270,1349442731453958988,auk,-0.0129288825766,0.00173042500844,0.361172610331,0.932407740836,0.0,0.0,0.0,0.0,0.0,0.0,0.0,0.0,0.0,0.01308996939,-0.000523598775598,0.011780972451,0.000169,0.0,0.0,0.0,0.000169,0.0,0.0,0.0,0.000169,-0.11772,-0.21582,9.89829,0.006889,0.0,0.0,0.0,0.006889,0.0,0.0,0.0,0.006889
1349442731471654709,271,1349442731473956823,auk,-0.0128157144014,0.00168280752495,0.361008989719,0.932472752934,0.0,0.0,0.0,0.0,0.0,0.0,0.0,0.0,0.0,0.00994837673637,0.00235619449019,0.00628318530718,0.000169,0.0,0.0,0.0,0.000169,0.0,0.0,0.0,0.000169,-0.10791,-0.17658,9.87867,0.006889,0.0,0.0,0.0,0.006889,0.0,0.0,0.0,0.006889
1349442731491580615,272,1349442731493957043,auk,-0.0127029905455,0.0016318248606,0.361089491559,0.932443215571,0.0,0.0,0.0,0.0,0.0,0.0,0.0,0.0,0.0,-0.00785398163397,0.00523598775598,-0.0149225651046,0.000169,0.0,0.0,0.0,0.000169,0.0,0.0,0.0,0.000169,-0.11772,-0.1962,9.87867,0.006889,0.0,0.0,0.0,0.006889,0.0,0.0,0.0,0.006889
1349442731511543393,273,1349442731513957024,auk,-0.0127527291325,0.00152005144631,0.361007528109,0.932474461844,0.0,0.0,0.0,0.0,0.0,0.0,0.0,0.0,0.0,0.010471975512,0.00523598775598,0.00340339204139,0.000169,0.0,0.0,0.0,0.000169,0.0,0.0,0.0,0.000169,-0.08829,-0.23544,9.85905,0.006889,0.0,0.0,0.0,0.006889,0.0,0.0,0.0,0.006889
1349442731531544308,274,1349442731533954859,auk,-0.0127708857324,0.00132802055505,0.360843419482,0.93253802467,0.0,0.0,0.0,0.0,0.0,0.0,0.0,0.0,0.0,0.00471238898038,0.00445058959259,-0.0146607657168,0.000169,0.0,0.0,0.0,0.000169,0.0,0.0,0.0,0.000169,-0.0981,-0.22563,9.84924,0.006889,0.0,0.0,0.0,0.006889,0.0,0.0,0.0,0.006889
1349442731551773542,275,1349442731553954840,auk,-0.0126892689167,0.00136172479467,0.360680537938,0.932602100423,0.0,0.0,0.0,0.0,0.0,0.0,0.0,0.0,0.0,0.00837758040957,-0.0180641577581,0.000261799387799,0.000169,0.0,0.0,0.0,0.000169,0.0,0.0,0.0,0.000169,-0.12753,-0.21582,9.89829,0.006889,0.0,0.0,0.0,0.006889,0.0,0.0,0.0,0.006889
1349442731571815666,276,1349442731573954821,auk,-0.012801871578,0.00141387283584,0.360518625545,0.932663086909,0.0,0.0,0.0,0.0,0.0,0.0,0.0,0.0,0.0,0.00942477796077,-0.00523598775598,0.0115191730632,0.000169,0.0,0.0,0.0,0.000169,0.0,0.0,0.0,0.000169,-0.11772,-0.22563,9.87867,0.006889,0.0,0.0,0.0,0.006889,0.0,0.0,0.0,0.006889
1349442731591299954,277,1349442731593952894,auk,-0.0129958515542,0.00143461301026,0.360356838135,0.932722895043,0.0,0.0,0.0,0.0,0.0,0.0,0.0,0.0,0.0,0.000785398163397,-0.00575958653158,0.00785398163397,0.000169,0.0,0.0,0.0,0.000169,0.0,0.0,0.0,0.000169,-0.11772,-0.22563,9.85905,0.006889,0.0,0.0,0.0,0.006889,0.0,0.0,0.0,0.006889
1349442731611160486,278,1349442731613952875,auk,-0.0128326680156,0.00150086675719,0.36011238304,0.932819458208,0.0,0.0,0.0,0.0,0.0,0.0,0.0,0.0,0.0,-0.010471975512,0.00183259571459,0.00549778714378,0.000169,0.0,0.0,0.0,0.000169,0.0,0.0,0.0,0.000169,-0.10791,-0.1962,9.89829,0.006889,0.0,0.0,0.0,0.006889,0.0,0.0,0.0,0.006889
1349442731631579762,279,1349442731633952856,auk,-0.0127193422351,0.00145532421144,0.359785876921,0.932947063414,0.0,0.0,0.0,0.0,0.0,0.0,0.0,0.0,0.0,0.00287979326579,-0.0128281700022,0.00157079632679,0.000169,0.0,0.0,0.0,0.000169,0.0,0.0,0.0,0.000169,-0.10791,-0.21582,9.91791,0.006889,0.0,0.0,0.0,0.006889,0.0,0.0,0.0,0.006889
1349442731653110447,280,1349442731653950930,auk,-0.0128005084594,0.00142616109706,0.359623167287,0.933008730183,0.0,0.0,0.0,0.0,0.0,0.0,0.0,0.0,0.0,-0.00942477796077,-0.00654498469498,-0.0128281700022,0.000169,0.0,0.0,0.0,0.000169,0.0,0.0,0.0,0.000169,-0.11772,-0.25506,9.89829,0.006889,0.0,0.0,0.0,0.006889,0.0,0.0,0.0,0.006889
1349442731671433600,281,1349442731673950911,auk,-0.0128816851512,0.00139702634945,0.35946044435,0.93307036147,0.0,0.0,0.0,0.0,0.0,0.0,0.0,0.0,0.0,-0.0120427718388,0.00445058959259,0.00209439510239,0.000169,0.0,0.0,0.0,0.000169,0.0,0.0,0.0,0.000169,-0.0981,-0.21582,9.86886,0.006889,0.0,0.0,0.0,0.006889,0.0,0.0,0.0,0.006889
1349442731691780095,282,1349442731693950891,auk,-0.0127373225219,0.00126775805985,0.359295968529,0.933135874567,0.0,0.0,0.0,0.0,0.0,0.0,0.0,0.0,0.0,-0.0204203522483,0.00994837673637,-0.00549778714378,0.000169,0.0,0.0,0.0,0.000169,0.0,0.0,0.0,0.000169,-0.10791,-0.17658,9.87867,0.006889,0.0,0.0,0.0,0.006889,0.0,0.0,0.0,0.006889
1349442731711500316,283,1349442731713948965,auk,-0.0126368861896,0.00149554402121,0.359134340232,0.933199120296,0.0,0.0,0.0,0.0,0.0,0.0,0.0,0.0,0.0,0.00916297857297,0.00837758040957,0.00157079632679,0.000169,0.0,0.0,0.0,0.000169,0.0,0.0,0.0,0.000169,-0.11772,-0.18639,9.87867,0.006889,0.0,0.0,0.0,0.006889,0.0,0.0,0.0,0.006889
1349442731731672417,284,1349442731733948946,auk,-0.0126366249755,0.00149774955114,0.358971460791,0.933261786849,0.0,0.0,0.0,0.0,0.0,0.0,0.0,0.0,0.0,0.00235619449019,0.001308996939,-0.00706858347058,0.000169,0.0,0.0,0.0,0.000169,0.0,0.0,0.0,0.000169,-0.12753,-0.21582,9.83943,0.006889,0.0,0.0,0.0,0.006889,0.0,0.0,0.0,0.006889
1349442731751738141,285,1349442731753947020,auk,-0.0125862165043,0.0016127191459,0.358809160852,0.933324687544,0.0,0.0,0.0,0.0,0.0,0.0,0.0,0.0,0.0,0.00916297857297,0.00916297857297,-0.0010471975512,0.000169,0.0,0.0,0.0,0.000169,0.0,0.0,0.0,0.000169,-0.12753,-0.20601,9.86886,0.006889,0.0,0.0,0.0,0.006889,0.0,0.0,0.0,0.006889
1349442731771240938,286,1349442731773947001,auk,-0.0125357682425,0.0017276712883,0.358646830211,0.933387551259,0.0,0.0,0.0,0.0,0.0,0.0,0.0,0.0,0.0,-0.00628318530718,-0.0151843644924,-0.000261799387799,0.000169,0.0,0.0,0.0,0.000169,0.0,0.0,0.0,0.000169,-0.11772,-0.18639,9.88848,0.006889,0.0,0.0,0.0,0.006889,0.0,0.0,0.0,0.006889
1349442731791545534,287,1349442731793946981,auk,-0.0126167770826,0.0016996765643,0.358402607323,0.933480315325,0.0,0.0,0.0,0.0,0.0,0.0,0.0,0.0,0.0,0.00942477796077,-0.00706858347058,-0.00261799387799,0.000169,0.0,0.0,0.0,0.000169,0.0,0.0,0.0,0.000169,-0.11772,-0.22563,9.87867,0.006889,0.0,0.0,0.0,0.006889,0.0,0.0,0.0,0.006889
1349442731811225316,288,1349442731813945055,auk,-0.012666834641,0.00158803969007,0.358320563973,0.9335113298,0.0,0.0,0.0,0.0,0.0,0.0,0.0,0.0,0.0,-0.00575958653158,-0.00287979326579,0.00183259571459,0.000169,0.0,0.0,0.0,0.000169,0.0,0.0,0.0,0.000169,-0.10791,-0.26487,9.83943,0.006889,0.0,0.0,0.0,0.006889,0.0,0.0,0.0,0.006889
1349442731831776177,289,1349442731833945036,auk,-0.012779842757,0.00163600823783,0.358484358481,0.933446818957,0.0,0.0,0.0,0.0,0.0,0.0,0.0,0.0,0.0,0.000523598775598,0.00314159265359,0.000261799387799,0.000169,0.0,0.0,0.0,0.000169,0.0,0.0,0.0,0.000169,-0.13734,-0.27468,9.81981,0.006889,0.0,0.0,0.0,0.006889,0.0,0.0,0.0,0.006889
1349442731851805723,290,1349442731853945017,auk,-0.0129241540227,0.00176539462707,0.358648886117,0.933381393703,0.0,0.0,0.0,0.0,0.0,0.0,0.0,0.0,0.0,0.00916297857297,0.00575958653158,-0.00366519142919,0.000169,0.0,0.0,0.0,0.000169,0.0,0.0,0.0,0.000169,-0.16677,-0.22563,9.85905,0.006889,0.0,0.0,0.0,0.006889,0.0,0.0,0.0,0.006889
1349442731871522246,291,1349442731873942852,auk,-0.0128428578232,0.00179557189598,0.358730182316,0.933351216434,0.0,0.0,0.0,0.0,0.0,0.0,0.0,0.0,0.0,-0.0204203522483,0.00497418836818,-0.00837758040957,0.000169,0.0,0.0,0.0,0.000169,0.0,0.0,0.0,0.000169,-0.11772,-0.20601,9.89829,0.006889,0.0,0.0,0.0,0.006889,0.0,0.0,0.0,0.006889
1349442731891189873,292,1349442731893942833,auk,-0.0128928676562,0.00168393723235,0.35864815014,0.933382259699,0.0,0.0,0.0,0.0,0.0,0.0,0.0,0.0,0.0,-0.00759218224618,-0.00235619449019,0.00602138591938,0.000169,0.0,0.0,0.0,0.000169,0.0,0.0,0.0,0.000169,-0.10791,-0.23544,9.89829,0.006889,0.0,0.0,0.0,0.006889,0.0,0.0,0.0,0.006889
1349442731911198402,293,1349442731913943052,auk,-0.0128615811915,0.00160247982481,0.358647411432,0.933383118586,0.0,0.0,0.0,0.0,0.0,0.0,0.0,0.0,0.0,0.00706858347058,-0.010471975512,0.00497418836818,0.000169,0.0,0.0,0.0,0.000169,0.0,0.0,0.0,0.000169,-0.11772,-0.24525,9.86886,0.006889,0.0,0.0,0.0,0.006889,0.0,0.0,0.0,0.006889
1349442731931735291,294,1349442731933940887,auk,-0.0129430341855,0.00157118192783,0.358647549909,0.933381992647,0.0,0.0,0.0,0.0,0.0,0.0,0.0,0.0,0.0,-0.00759218224618,0.0109955742876,0.0128281700022,0.000169,0.0,0.0,0.0,0.000169,0.0,0.0,0.0,0.000169,-0.0981,-0.21582,9.89829,0.006889,0.0,0.0,0.0,0.006889,0.0,0.0,0.0,0.006889
1349442731956868816,295,1349442731953940868,auk,-0.012830028965,0.00152326169074,0.358483758297,0.9334465518,0.0,0.0,0.0,0.0,0.0,0.0,0.0,0.0,0.0,-0.011780972451,-0.0123045712266,0.00811578102177,0.000169,0.0,0.0,0.0,0.000169,0.0,0.0,0.0,0.000169,-0.0981,-0.18639,9.89829,0.006889,0.0,0.0,0.0,0.006889,0.0,0.0,0.0,0.006889
1349442731971410044,296,1349442731973940849,auk,-0.0127171692222,0.00147419212709,0.358401426679,0.933479789668,0.0,0.0,0.0,0.0,0.0,0.0,0.0,0.0,0.0,-0.010471975512,0.00157079632679,-0.010471975512,0.000169,0.0,0.0,0.0,0.000169,0.0,0.0,0.0,0.000169,-0.0981,-0.17658,9.87867,0.006889,0.0,0.0,0.0,0.006889,0.0,0.0,0.0,0.006889
1349442731991676782,297,1349442731993938923,auk,-0.0126355762697,0.00150657121391,0.358319833726,0.933512168755,0.0,0.0,0.0,0.0,0.0,0.0,0.0,0.0,0.0,0.01308996939,0.0123045712266,0.00497418836818,0.000169,0.0,0.0,0.0,0.000169,0.0,0.0,0.0,0.000169,-0.12753,-0.18639,9.88848,0.006889,0.0,0.0,0.0,0.006889,0.0,0.0,0.0,0.006889
1349442732011527051,298,1349442732013938904,auk,-0.012503617715,0.0016527607199,0.358157347047,0.93357605083,0.0,0.0,0.0,0.0,0.0,0.0,0.0,0.0,0.0,0.0010471975512,-0.00654498469498,0.0115191730632,0.000169,0.0,0.0,0.0,0.000169,0.0,0.0,0.0,0.000169,-0.15696,-0.21582,9.9081,0.006889,0.0,0.0,0.0,0.006889,0.0,0.0,0.0,0.006889
1349442732031665420,299,1349442732033938885,auk,-0.0126474199379,0.00178555724157,0.358077457297,0.933604514305,0.0,0.0,0.0,0.0,0.0,0.0,0.0,0.0,0.0,0.0,-0.0151843644924,-0.00706858347058,0.000169,0.0,0.0,0.0,0.000169,0.0,0.0,0.0,0.000169,-0.14715,-0.22563,9.89829,0.006889,0.0,0.0,0.0,0.006889,0.0,0.0,0.0,0.006889
1349442732056687052,300,1349442732053936958,auk,-0.0127788409921,0.00164381469379,0.357914081418,0.933665630415,0.0,0.0,0.0,0.0,0.0,0.0,0.0,0.0,0.0,-0.0010471975512,-0.0175405589825,0.0196349540849,0.000169,0.0,0.0,0.0,0.000169,0.0,0.0,0.0,0.000169,-0.0981,-0.22563,9.88848,0.006889,0.0,0.0,0.0,0.006889,0.0,0.0,0.0,0.006889
1349442732071333748,301,1349442732073936939,auk,-0.0128289624012,0.00153221836875,0.357832002361,0.933696593181,0.0,0.0,0.0,0.0,0.0,0.0,0.0,0.0,0.0,-0.00706858347058,0.00445058959259,-0.000523598775598,0.000169,0.0,0.0,0.0,0.000169,0.0,0.0,0.0,0.000169,-0.0981,-0.22563,9.86886,0.006889,0.0,0.0,0.0,0.006889,0.0,0.0,0.0,0.006889
1349442732091439217,302,1349442732093936920,auk,-0.0128788551941,0.00142287871728,0.357586929307,0.933789964871,0.0,0.0,0.0,0.0,0.0,0.0,0.0,0.0,0.0,-0.00445058959259,-0.00471238898038,0.00628318530718,0.000169,0.0,0.0,0.0,0.000169,0.0,0.0,0.0,0.000169,-0.10791,-0.23544,9.87867,0.006889,0.0,0.0,0.0,0.006889,0.0,0.0,0.0,0.006889
1349442732111401299,303,1349442732113934994,auk,-0.0128476609401,0.00134138589929,0.357586174344,0.933790804308,0.0,0.0,0.0,0.0,0.0,0.0,0.0,0.0,0.0,-0.00471238898038,0.00392699081699,-0.00287979326579,0.000169,0.0,0.0,0.0,0.000169,0.0,0.0,0.0,0.000169,-0.08829,-0.22563,9.87867,0.006889,0.0,0.0,0.0,0.006889,0.0,0.0,0.0,0.006889
1349442732131477784,304,1349442732133934975,auk,-0.0128977405894,0.00123093895106,0.357422542607,0.933852910855,0.0,0.0,0.0,0.0,0.0,0.0,0.0,0.0,0.0,0.00680678408278,0.00628318530718,0.00183259571459,0.000169,0.0,0.0,0.0,0.000169,0.0,0.0,0.0,0.000169,-0.08829,-0.25506,9.85905,0.006889,0.0,0.0,0.0,0.006889,0.0,0.0,0.0,0.006889
1349442732151680328,305,1349442732153934956,auk,-0.0129478591304,0.00112050964322,0.357258880417,0.933914979945,0.0,0.0,0.0,0.0,0.0,0.0,0.0,0.0,0.0,0.00680678408278,-0.0120427718388,-0.00497418836818,0.000169,0.0,0.0,0.0,0.000169,0.0,0.0,0.0,0.000169,-0.07848,-0.26487,9.86886,0.006889,0.0,0.0,0.0,0.006889,0.0,0.0,0.0,0.006889
1349442732171729160,306,1349442732173933029,auk,-0.0129668648001,0.000928589015352,0.357094400165,0.93397783031,0.0,0.0,0.0,0.0,0.0,0.0,0.0,0.0,0.0,0.0120427718388,0.0,0.00157079632679,0.000169,0.0,0.0,0.0,0.000169,0.0,0.0,0.0,0.000169,-0.07848,-0.20601,9.89829,0.006889,0.0,0.0,0.0,0.006889,0.0,0.0,0.0,0.006889
1349442732191743136,307,1349442732193933010,auk,-0.0129163297066,0.00104351476003,0.356932082901,0.934040452925,0.0,0.0,0.0,0.0,0.0,0.0,0.0,0.0,0.0,0.00916297857297,-0.014398966329,-0.010471975512,0.000169,0.0,0.0,0.0,0.000169,0.0,0.0,0.0,0.000169,-0.12753,-0.17658,9.9081,0.006889,0.0,0.0,0.0,0.006889,0.0,0.0,0.0,0.006889
1349442732211551352,308,1349442732213932991,auk,-0.0128346314917,0.00107690303845,0.356768964034,0.934103858688,0.0,0.0,0.0,0.0,0.0,0.0,0.0,0.0,0.0,-0.00680678408278,-0.00209439510239,-0.00287979326579,0.000169,0.0,0.0,0.0,0.000169,0.0,0.0,0.0,0.000169,-0.13734,-0.21582,9.89829,0.006889,0.0,0.0,0.0,0.006889,0.0,0.0,0.0,0.006889
1349442732231633845,309,1349442732233930826,auk,-0.0127840311109,0.00119178829038,0.35660659518,0.934166411547,0.0,0.0,0.0,0.0,0.0,0.0,0.0,0.0,0.0,0.00235619449019,-0.00157079632679,0.0,0.000169,0.0,0.0,0.0,0.000169,0.0,0.0,0.0,0.000169,-0.10791,-0.22563,9.89829,0.006889,0.0,0.0,0.0,0.006889,0.0,0.0,0.0,0.006889
1349442732251658225,310,1349442732253931046,auk,-0.0127838229099,0.00119401950656,0.356443546953,0.934228636911,0.0,0.0,0.0,0.0,0.0,0.0,0.0,0.0,0.0,0.00602138591938,0.00314159265359,0.00733038285838,0.000169,0.0,0.0,0.0,0.000169,0.0,0.0,0.0,0.000169,-0.10791,-0.20601,9.88848,0.006889,0.0,0.0,0.0,0.006889,0.0,0.0,0.0,0.006889
1349442732271609554,311,1349442732273931026,auk,-0.0126710012127,0.00114580563013,0.356279624961,0.934292760164,0.0,0.0,0.0,0.0,0.0,0.0,0.0,0.0,0.0,-0.0170169602069,0.001308996939,-0.0178023583703,0.000169,0.0,0.0,0.0,0.000169,0.0,0.0,0.0,0.000169,-0.0981,-0.21582,9.89829,0.006889,0.0,0.0,0.0,0.006889,0.0,0.0,0.0,0.006889
1349442732291835019,312,1349442732293928862,auk,-0.0125581964036,0.00109755225951,0.35611570025,0.934356835003,0.0,0.0,0.0,0.0,0.0,0.0,0.0,0.0,0.0,0.0010471975512,0.0219911485751,0.00261799387799,0.000169,0.0,0.0,0.0,0.000169,0.0,0.0,0.0,0.000169,-0.08829,-0.21582,9.9081,0.006889,0.0,0.0,0.0,0.006889,0.0,0.0,0.0,0.006889
1349442732311506548,313,1349442732313928843,auk,-0.0126085816082,0.000986033778247,0.356033492603,0.934387608839,0.0,0.0,0.0,0.0,0.0,0.0,0.0,0.0,0.0,-0.00733038285838,-0.00366519142919,-0.014398966329,0.000169,0.0,0.0,0.0,0.000169,0.0,0.0,0.0,0.000169,-0.0981,-0.22563,9.89829,0.006889,0.0,0.0,0.0,0.006889,0.0,0.0,0.0,0.006889
1349442732331640582,314,1349442732333926916,auk,-0.0126592148347,0.000871210073619,0.356195880599,0.934325146786,0.0,0.0,0.0,0.0,0.0,0.0,0.0,0.0,0.0,0.00706858347058,-0.00157079632679,0.0206821516361,0.000169,0.0,0.0,0.0,0.000169,0.0,0.0,0.0,0.000169,-0.0981,-0.24525,9.89829,0.006889,0.0,0.0,0.0,0.006889,0.0,0.0,0.0,0.006889
1349442732353254100,315,1349442732353926897,auk,-0.0127098083082,0.000756368849929,0.356358237978,0.934262647709,0.0,0.0,0.0,0.0,0.0,0.0,0.0,0.0,0.0,-0.00942477796077,-0.00654498469498,0.00314159265359,0.000169,0.0,0.0,0.0,0.000169,0.0,0.0,0.0,0.000169,-0.08829,-0.21582,9.87867,0.006889,0.0,0.0,0.0,0.006889,0.0,0.0,0.0,0.006889
1349442732371217630,316,1349442732373926878,auk,-0.0125973131508,0.000703734687966,0.356520447337,0.934202324494,0.0,0.0,0.0,0.0,0.0,0.0,0.0,0.0,0.0,0.00261799387799,-0.00994837673637,-0.00863937979737,0.000169,0.0,0.0,0.0,0.000169,0.0,0.0,0.0,0.000169,-0.06867,-0.21582,9.87867,0.006889,0.0,0.0,0.0,0.006889,0.0,0.0,0.0,0.006889
1349442732391473961,317,1349442732393924952,auk,-0.0125661017087,0.000624399671068,0.356356612358,0.934265309236,0.0,0.0,0.0,0.0,0.0,0.0,0.0,0.0,0.0,-0.00706858347058,-0.00471238898038,-0.00863937979737,0.000169,0.0,0.0,0.0,0.000169,0.0,0.0,0.0,0.000169,-0.0981,-0.26487,9.89829,0.006889,0.0,0.0,0.0,0.006889,0.0,0.0,0.0,0.006889
1349442732411460069,318,1349442732413924932,auk,-0.0126475279461,0.000595509106853,0.356193600198,0.93432639082,0.0,0.0,0.0,0.0,0.0,0.0,0.0,0.0,0.0,0.00287979326579,0.001308996939,-0.00863937979737,0.000169,0.0,0.0,0.0,0.000169,0.0,0.0,0.0,0.000169,-0.0981,-0.25506,9.86886,0.006889,0.0,0.0,0.0,0.006889,0.0,0.0,0.0,0.006889
1349442732431711854,319,1349442732433924913,auk,-0.0126980731871,0.000480670181004,0.356355918479,0.934263874534,0.0,0.0,0.0,0.0,0.0,0.0,0.0,0.0,0.0,-0.00471238898038,-0.00157079632679,0.00628318530718,0.000169,0.0,0.0,0.0,0.000169,0.0,0.0,0.0,0.000169,-0.08829,-0.25506,9.87867,0.006889,0.0,0.0,0.0,0.006889,0.0,0.0,0.0,0.006889
1349442732451786241,320,1349442732453922987,auk,-0.0128105984707,0.000533341587119,0.356193698709,0.93432416918,0.0,0.0,0.0,0.0,0.0,0.0,0.0,0.0,0.0,-0.00916297857297,-0.00471238898038,-0.011780972451,0.000169,0.0,0.0,0.0,0.000169,0.0,0.0,0.0,0.000169,-0.11772,-0.22563,9.91791,0.006889,0.0,0.0,0.0,0.006889,0.0,0.0,0.0,0.006889
1349442732471657178,321,1349442732473922968,auk,-0.0127600243795,0.000648191342685,0.356031369849,0.934386657283,0.0,0.0,0.0,0.0,0.0,0.0,0.0,0.0,0.0,-0.0109955742876,-0.00863937979737,-0.0151843644924,0.000169,0.0,0.0,0.0,0.000169,0.0,0.0,0.0,0.000169,-0.11772,-0.1962,9.89829,0.006889,0.0,0.0,0.0,0.006889,0.0,0.0,0.0,0.006889
1349442732491213751,322,1349442732493922949,auk,-0.0127289150544,0.000567757790723,0.355949032819,0.934418502818,0.0,0.0,0.0,0.0,0.0,0.0,0.0,0.0,0.0,-0.001308996939,0.001308996939,-0.00602138591938,0.000169,0.0,0.0,0.0,0.000169,0.0,0.0,0.0,0.000169,-0.06867,-0.21582,9.86886,0.006889,0.0,0.0,0.0,0.006889,0.0,0.0,0.0,0.006889
1349442732511501094,323,1349442732513921022,auk,-0.0126162282601,0.000519475011291,0.355785098724,0.934482490182,0.0,0.0,0.0,0.0,0.0,0.0,0.0,0.0,0.0,0.00994837673637,0.00680678408278,-0.00366519142919,0.000169,0.0,0.0,0.0,0.000169,0.0,0.0,0.0,0.000169,-0.04905,-0.1962,9.89829,0.006889,0.0,0.0,0.0,0.006889,0.0,0.0,0.0,0.006889
1349442732531675292,324,1349442732533921003,auk,-0.0125035994533,0.000470061626254,0.355702715161,0.934515391778,0.0,0.0,0.0,0.0,0.0,0.0,0.0,0.0,0.0,-0.00261799387799,-0.00314159265359,0.00287979326579,0.000169,0.0,0.0,0.0,0.000169,0.0,0.0,0.0,0.000169,-0.05886,-0.18639,9.91791,0.006889,0.0,0.0,0.0,0.006889,0.0,0.0,0.0,0.006889
1349442732556955002,325,1349442732553920984,auk,-0.0124531301062,0.000581571217086,0.355785002639,0.934484677896,0.0,0.0,0.0,0.0,0.0,0.0,0.0,0.0,0.0,0.00314159265359,0.0219911485751,-0.00366519142919,0.000169,0.0,0.0,0.0,0.000169,0.0,0.0,0.0,0.000169,-0.11772,-0.21582,9.9081,0.006889,0.0,0.0,0.0,0.006889,0.0,0.0,0.0,0.006889
1349442732571409486,326,1349442732573919058,auk,-0.0124026197293,0.000694172081513,0.355785719968,0.934484999674,0.0,0.0,0.0,0.0,0.0,0.0,0.0,0.0,0.0,0.0115191730632,0.00654498469498,-0.00523598775598,0.000169,0.0,0.0,0.0,0.000169,0.0,0.0,0.0,0.000169,-0.13734,-0.21582,9.88848,0.006889,0.0,0.0,0.0,0.006889,0.0,0.0,0.0,0.006889
1349442732591468507,327,1349442732593919039,auk,-0.0124336584774,0.00077572484428,0.355786486693,0.934484231154,0.0,0.0,0.0,0.0,0.0,0.0,0.0,0.0,0.0,0.00706858347058,0.00261799387799,0.00968657734857,0.000169,0.0,0.0,0.0,0.000169,0.0,0.0,0.0,0.000169,-0.13734,-0.23544,9.89829,0.006889,0.0,0.0,0.0,0.006889,0.0,0.0,0.0,0.006889
1349442732611361789,328,1349442732613919020,auk,-0.0125771260094,0.000909977123134,0.355624989366,0.934543661249,0.0,0.0,0.0,0.0,0.0,0.0,0.0,0.0,0.0,0.00418879020479,0.00759218224618,0.00837758040957,0.000169,0.0,0.0,0.0,0.000169,0.0,0.0,0.0,0.000169,-0.12753,-0.23544,9.89829,0.006889,0.0,0.0,0.0,0.006889,0.0,0.0,0.0,0.006889
1349442732631642425,329,1349442732633916855,auk,-0.0126898718176,0.00095828622454,0.355788943282,0.934479682325,0.0,0.0,0.0,0.0,0.0,0.0,0.0,0.0,0.0,-0.00445058959259,0.00811578102177,-0.00863937979737,0.000169,0.0,0.0,0.0,0.000169,0.0,0.0,0.0,0.000169,-0.10791,-0.21582,9.92772,0.006889,0.0,0.0,0.0,0.006889,0.0,0.0,0.0,0.006889
1349442732651586143,330,1349442732653916836,auk,-0.0127210913383,0.00103761859331,0.355952805316,0.93441676867,0.0,0.0,0.0,0.0,0.0,0.0,0.0,0.0,0.0,0.00287979326579,0.0,-0.00863937979737,0.000169,0.0,0.0,0.0,0.000169,0.0,0.0,0.0,0.000169,-0.12753,-0.24525,9.89829,0.006889,0.0,0.0,0.0,0.006889,0.0,0.0,0.0,0.006889
1349442732671283662,331,1349442732673917055,auk,-0.0129154141501,0.0010547859853,0.356116843033,0.934351579231,0.0,0.0,0.0,0.0,0.0,0.0,0.0,0.0,0.0,0.00209439510239,0.00890117918517,-0.00654498469498,0.000169,0.0,0.0,0.0,0.000169,0.0,0.0,0.0,0.000169,-0.12753,-0.25506,9.87867,0.006889,0.0,0.0,0.0,0.006889,0.0,0.0,0.0,0.006889
1349442732691689875,332,1349442732693914890,auk,-0.0130279214418,0.00110638737256,0.356036180746,0.93438069713,0.0,0.0,0.0,0.0,0.0,0.0,0.0,0.0,0.0,0.00523598775598,0.0120427718388,-0.000261799387799,0.000169,0.0,0.0,0.0,0.000169,0.0,0.0,0.0,0.000169,-0.12753,-0.22563,9.87867,0.006889,0.0,0.0,0.0,0.006889,0.0,0.0,0.0,0.006889
1349442732711205311,333,1349442732713914871,auk,-0.0129267267707,0.00133387230437,0.355874431573,0.934443422296,0.0,0.0,0.0,0.0,0.0,0.0,0.0,0.0,0.0,-0.00680678408278,0.0136135681656,-0.00261799387799,0.000169,0.0,0.0,0.0,0.000169,0.0,0.0,0.0,0.000169,-0.13734,-0.1962,9.88848,0.006889,0.0,0.0,0.0,0.006889,0.0,0.0,0.0,0.006889
1349442732731564309,334,1349442732733914852,auk,-0.0128764782698,0.00144423070219,0.356038156089,0.934381582606,0.0,0.0,0.0,0.0,0.0,0.0,0.0,0.0,0.0,0.0243473430653,0.00366519142919,-0.0151843644924,0.000169,0.0,0.0,0.0,0.000169,0.0,0.0,0.0,0.000169,-0.12753,-0.20601,9.88848,0.006889,0.0,0.0,0.0,0.006889,0.0,0.0,0.0,0.006889
1349442732751418762,335,1349442732753912926,auk,-0.0127641219434,0.00139152865508,0.356200354731,0.934321383748,0.0,0.0,0.0,0.0,0.0,0.0,0.0,0.0,0.0,-0.00235619449019,0.0102101761242,0.0010471975512,0.000169,0.0,0.0,0.0,0.000169,0.0,0.0,0.0,0.000169,-0.08829,-0.1962,9.87867,0.006889,0.0,0.0,0.0,0.006889,0.0,0.0,0.0,0.006889
1349442732771526051,336,1349442732773912907,auk,-0.0126517472766,0.00133886572113,0.356362552008,0.934261137079,0.0,0.0,0.0,0.0,0.0,0.0,0.0,0.0,0.0,-0.00392699081699,0.011780972451,0.0112573736754,0.000169,0.0,0.0,0.0,0.000169,0.0,0.0,0.0,0.000169,-0.06867,-0.1962,9.87867,0.006889,0.0,0.0,0.0,0.006889,0.0,0.0,0.0,0.006889
1349442732791426182,337,1349442732793912888,auk,-0.0124575997209,0.00131952883681,0.356361579876,0.934264144362,0.0,0.0,0.0,0.0,0.0,0.0,0.0,0.0,0.0,-0.0010471975512,0.00157079632679,0.001308996939,0.000169,0.0,0.0,0.0,0.000169,0.0,0.0,0.0,0.000169,-0.0981,-0.20601,9.88848,0.006889,0.0,0.0,0.0,0.006889,0.0,0.0,0.0,0.006889
1349442732811643393,338,1349442732813910961,auk,-0.0124573692299,0.00132170307802,0.356198514595,0.934326326961,0.0,0.0,0.0,0.0,0.0,0.0,0.0,0.0,0.0,-0.00157079632679,0.000523598775598,0.0107337748998,0.000169,0.0,0.0,0.0,0.000169,0.0,0.0,0.0,0.000169,-0.11772,-0.21582,9.84924,0.006889,0.0,0.0,0.0,0.006889,0.0,0.0,0.0,0.006889
1349442732831686006,339,1349442732833910942,auk,-0.0126512791535,0.0013432819324,0.356036411646,0.934385474155,0.0,0.0,0.0,0.0,0.0,0.0,0.0,0.0,0.0,-0.00942477796077,0.00157079632679,-0.00575958653158,0.000169,0.0,0.0,0.0,0.000169,0.0,0.0,0.0,0.000169,-0.11772,-0.21582,9.86886,0.006889,0.0,0.0,0.0,0.006889,0.0,0.0,0.0,0.006889
1349442732857012097,340,1349442732853910923,auk,-0.0126005437019,0.00145809583168,0.355873944283,0.934447877645,0.0,0.0,0.0,0.0,0.0,0.0,0.0,0.0,0.0,0.0107337748998,-0.00209439510239,0.000261799387799,0.000169,0.0,0.0,0.0,0.000169,0.0,0.0,0.0,0.000169,-0.12753,-0.20601,9.89829,0.006889,0.0,0.0,0.0,0.006889,0.0,0.0,0.0,0.006889
1349442732871437311,341,1349442732873908997,auk,-0.0125497685119,0.00157289216477,0.355711446331,0.934510244069,0.0,0.0,0.0,0.0,0.0,0.0,0.0,0.0,0.0,0.00968657734857,-0.0107337748998,0.00183259571459,0.000169,0.0,0.0,0.0,0.000169,0.0,0.0,0.0,0.000169,-0.11772,-0.17658,9.87867,0.006889,0.0,0.0,0.0,0.006889,0.0,0.0,0.0,0.006889
1349442732891535940,342,1349442732893908978,auk,-0.0124991008191,0.00168658017195,0.355630473287,0.934541542359,0.0,0.0,0.0,0.0,0.0,0.0,0.0,0.0,0.0,0.00157079632679,-0.0107337748998,0.00445058959259,0.000169,0.0,0.0,0.0,0.000169,0.0,0.0,0.0,0.000169,-0.11772,-0.20601,9.85905,0.006889,0.0,0.0,0.0,0.006889,0.0,0.0,0.0,0.006889
1349442732911610189,343,1349442732913907051,auk,-0.0126119815024,0.00173490257947,0.355794444463,0.934477523178,0.0,0.0,0.0,0.0,0.0,0.0,0.0,0.0,0.0,-0.00418879020479,0.0146607657168,-0.000523598775598,0.000169,0.0,0.0,0.0,0.000169,0.0,0.0,0.0,0.000169,-0.11772,-0.23544,9.85905,0.006889,0.0,0.0,0.0,0.006889,0.0,0.0,0.0,0.006889
1349442732931823214,344,1349442732933907032,auk,-0.0126627751868,0.00162009087619,0.355956956334,0.934415151134,0.0,0.0,0.0,0.0,0.0,0.0,0.0,0.0,0.0,-0.0112573736754,0.00497418836818,0.00523598775598,0.000169,0.0,0.0,0.0,0.000169,0.0,0.0,0.0,0.000169,-0.10791,-0.22563,9.85905,0.006889,0.0,0.0,0.0,0.006889,0.0,0.0,0.0,0.006889
1349442732951830832,345,1349442732953907013,auk,-0.0127443182433,0.00158902776564,0.355957096358,0.93441404254,0.0,0.0,0.0,0.0,0.0,0.0,0.0,0.0,0.0,0.0172787595947,0.0109955742876,0.00445058959259,0.000169,0.0,0.0,0.0,0.000169,0.0,0.0,0.0,0.000169,-0.12753,-0.24525,9.86886,0.006889,0.0,0.0,0.0,0.006889,0.0,0.0,0.0,0.006889
1349442732971271119,346,1349442732973904848,auk,-0.0128566267108,0.00164175575333,0.355794886466,0.934474189345,0.0,0.0,0.0,0.0,0.0,0.0,0.0,0.0,0.0,0.00340339204139,-0.00261799387799,0.0141371669412,0.000169,0.0,0.0,0.0,0.000169,0.0,0.0,0.0,0.000169,-0.14715,-0.23544,9.86886,0.006889,0.0,0.0,0.0,0.006889,0.0,0.0,0.0,0.006889
1349442732991545259,347,1349442732993904829,auk,-0.0129999399268,0.00177608076067,0.355633421127,0.934533422022,0.0,0.0,0.0,0.0,0.0,0.0,0.0,0.0,0.0,-0.0109955742876,-0.00314159265359,0.00680678408278,0.000169,0.0,0.0,0.0,0.000169,0.0,0.0,0.0,0.000169,-0.13734,-0.24525,9.86886,0.006889,0.0,0.0,0.0,0.006889,0.0,0.0,0.0,0.006889
1349442733011666306,348,1349442733013905048,auk,-0.013162747228,0.00171630835155,0.355470613826,0.934593194431,0.0,0.0,0.0,0.0,0.0,0.0,0.0,0.0,0.0,0.00314159265359,-0.00602138591938,0.000523598775598,0.000169,0.0,0.0,0.0,0.000169,0.0,0.0,0.0,0.000169,-0.11772,-0.27468,9.88848,0.006889,0.0,0.0,0.0,0.006889,0.0,0.0,0.0,0.006889
1349442733031855443,349,1349442733033902884,auk,-0.0132440114799,0.00168759922379,0.355307639752,0.934654069323,0.0,0.0,0.0,0.0,0.0,0.0,0.0,0.0,0.0,-0.00759218224618,-0.00445058959259,0.0010471975512,0.000169,0.0,0.0,0.0,0.000169,0.0,0.0,0.0,0.000169,-0.10791,-0.23544,9.89829,0.006889,0.0,0.0,0.0,0.006889,0.0,0.0,0.0,0.006889
1349442733051918376,350,1349442733053902864,auk,-0.013182022549,0.00152446211074,0.35530610196,0.934655810556,0.0,0.0,0.0,0.0,0.0,0.0,0.0,0.0,0.0,-0.00366519142919,0.00811578102177,0.00837758040957,0.000169,0.0,0.0,0.0,0.000169,0.0,0.0,0.0,0.000169,-0.0981,-0.24525,9.88848,0.006889,0.0,0.0,0.0,0.006889,0.0,0.0,0.0,0.006889
1349442733071202562,351,1349442733073902845,auk,-0.0132325920641,0.00141188729184,0.355305453568,0.934655519294,0.0,0.0,0.0,0.0,0.0,0.0,0.0,0.0,0.0,-0.0010471975512,-0.00863937979737,-0.0102101761242,0.000169,0.0,0.0,0.0,0.000169,0.0,0.0,0.0,0.000169,-0.08829,-0.25506,9.88848,0.006889,0.0,0.0,0.0,0.006889,0.0,0.0,0.0,0.006889
1349442733091496259,352,1349442733093902826,auk,-0.0132831615275,0.00129931258781,0.355304785529,0.934655219205,0.0,0.0,0.0,0.0,0.0,0.0,0.0,0.0,0.0,0.0107337748998,-0.0178023583703,-0.00706858347058,0.000169,0.0,0.0,0.0,0.000169,0.0,0.0,0.0,0.000169,-0.10791,-0.22563,9.88848,0.006889,0.0,0.0,0.0,0.006889,0.0,0.0,0.0,0.006889
1349442733111294488,353,1349442733113903046,auk,-0.0130892615607,0.00127747186803,0.355466898225,0.93459634258,0.0,0.0,0.0,0.0,0.0,0.0,0.0,0.0,0.0,0.0125663706144,0.00418879020479,-0.00314159265359,0.000169,0.0,0.0,0.0,0.000169,0.0,0.0,0.0,0.000169,-0.0981,-0.21582,9.89829,0.006889,0.0,0.0,0.0,0.006889,0.0,0.0,0.0,0.006889
1349442733131694270,354,1349442733133900881,auk,-0.0129458837524,0.0011431062024,0.355628347975,0.934537091569,0.0,0.0,0.0,0.0,0.0,0.0,0.0,0.0,0.0,0.00497418836818,-0.0125663706144,0.0109955742876,0.000169,0.0,0.0,0.0,0.000169,0.0,0.0,0.0,0.000169,-0.0981,-0.20601,9.87867,0.006889,0.0,0.0,0.0,0.006889,0.0,0.0,0.0,0.006889
1349442733157175543,355,1349442733153900862,auk,-0.0128955725523,0.00125344786874,0.355792118247,0.934475308219,0.0,0.0,0.0,0.0,0.0,0.0,0.0,0.0,0.0,-0.00628318530718,-0.00471238898038,-0.001308996939,0.000169,0.0,0.0,0.0,0.000169,0.0,0.0,0.0,0.000169,-0.14715,-0.1962,9.86886,0.006889,0.0,0.0,0.0,0.006889,0.0,0.0,0.0,0.006889
1349442733171376773,356,1349442733173900843,auk,-0.012844942729,0.00136717008827,0.355711217056,0.93450664436,0.0,0.0,0.0,0.0,0.0,0.0,0.0,0.0,0.0,-0.00994837673637,-0.00287979326579,-0.00733038285838,0.000169,0.0,0.0,0.0,0.000169,0.0,0.0,0.0,0.000169,-0.15696,-0.18639,9.86886,0.006889,0.0,0.0,0.0,0.006889,0.0,0.0,0.0,0.006889
1349442733191499141,357,1349442733193900824,auk,-0.0127941638259,0.00148200009844,0.355548738279,0.934568995717,0.0,0.0,0.0,0.0,0.0,0.0,0.0,0.0,0.0,0.00654498469498,-0.0136135681656,-0.00916297857297,0.000169,0.0,0.0,0.0,0.000169,0.0,0.0,0.0,0.000169,-0.11772,-0.23544,9.86886,0.006889,0.0,0.0,0.0,0.006889,0.0,0.0,0.0,0.006889
1349442733211638138,358,1349442733213901043,auk,-0.0128754668688,0.00145321982719,0.355385747974,0.934629916407,0.0,0.0,0.0,0.0,0.0,0.0,0.0,0.0,0.0,-0.000523598775598,0.0115191730632,0.00942477796077,0.000169,0.0,0.0,0.0,0.000169,0.0,0.0,0.0,0.000169,-0.11772,-0.25506,9.88848,0.006889,0.0,0.0,0.0,0.006889,0.0,0.0,0.0,0.006889
1349442733231555378,359,1349442733233898878,auk,-0.0130692062584,0.00147618079944,0.355142067763,0.934719812801,0.0,0.0,0.0,0.0,0.0,0.0,0.0,0.0,0.0,-0.00523598775598,0.00523598775598,0.000523598775598,0.000169,0.0,0.0,0.0,0.000169,0.0,0.0,0.0,0.000169,-0.12753,-0.27468,9.89829,0.006889,0.0,0.0,0.0,0.006889,0.0,0.0,0.0,0.006889
1349442733256986857,360,1349442733253898859,auk,-0.0131001867126,0.00155775484918,0.355142833749,0.9347189557,0.0,0.0,0.0,0.0,0.0,0.0,0.0,0.0,0.0,-0.00209439510239,-0.0185877565337,-0.00890117918517,0.000169,0.0,0.0,0.0,0.000169,0.0,0.0,0.0,0.000169,-0.13734,-0.27468,9.91791,0.006889,0.0,0.0,0.0,0.006889,0.0,0.0,0.0,0.006889
1349442733271215465,361,1349442733273898840,auk,-0.0133248512903,0.00166240699779,0.354899932594,0.934807853297,0.0,0.0,0.0,0.0,0.0,0.0,0.0,0.0,0.0,-0.00418879020479,-0.00340339204139,-0.001308996939,0.000169,0.0,0.0,0.0,0.000169,0.0,0.0,0.0,0.000169,-0.11772,-0.26487,9.9081,0.006889,0.0,0.0,0.0,0.006889,0.0,0.0,0.0,0.006889
1349442733291839588,362,1349442733293898821,auk,-0.0134061436705,0.00163377596815,0.354736916365,0.934868614435,0.0,0.0,0.0,0.0,0.0,0.0,0.0,0.0,0.0,-0.00287979326579,0.0,-0.00890117918517,0.000169,0.0,0.0,0.0,0.000169,0.0,0.0,0.0,0.000169,-0.11772,-0.28449,9.89829,0.006889,0.0,0.0,0.0,0.006889,0.0,0.0,0.0,0.006889
1349442733311276793,363,1349442733313896894,auk,-0.0134565162342,0.00152358068974,0.354573097446,0.934930221696,0.0,0.0,0.0,0.0,0.0,0.0,0.0,0.0,0.0,-0.0151843644924,0.00418879020479,0.00418879020479,0.000169,0.0,0.0,0.0,0.000169,0.0,0.0,0.0,0.000169,-0.11772,-0.25506,9.85905,0.006889,0.0,0.0,0.0,0.006889,0.0,0.0,0.0,0.006889
